subject	count_trial	count_subj	Global_trial_num	run_num	trial_time	resp_key	resp_time	trial_type	acc	currCity	priorCity	trialList	respList	curVidNav	tmn
S1_A	1	1	1	0	0.01563197	nan	0	null	0	2	99	>,>,>	,r,r	NavClipsFinalCutRand/GR_st9_5000_3c_1/Position/position_1.txt	m
S1_A	2	1	2	0	25.04238	s	38.03113	s	1	2	2	<,>,>	l,r,r	NavClipsFinalCutRand/GR_st9_5000_3c_1/Position/position_1.txt	m
S1_A	3	1	3	0	50.06909	d	60.42307	d	1	1	2	<,<,<	l,l,l	NavClipsFinalCutRand/GR_st9_5000_3c_0/Position/position_0.txt	t
S1_A	4	1	4	0	75.07886	d	89.88437	s	0	1	1	<,>,<	l,r,l	NavClipsFinalCutRand/GR_st9_5000_3c_0/Position/position_1.txt	t
S1_A	5	1	5	0	100.1054	s	109.1424	d	0	2	1	>,<,>	r,l,r	NavClipsFinalCutRand/GR_st9_5000_3c_1/Position/position_2.txt	m
S1_A	6	1	6	0	125.1321	s	133.4518	s	1	2	2	>,>,>	r,r,r	NavClipsFinalCutRand/GR_st9_5000_3c_1/Position/position_3.txt	m
S1_A	7	1	7	0	150.1589	d	157.5447	s	0	2	2	<,>,<	l,r,l	NavClipsFinalCutRand/GR_st9_5000_3c_1/Position/position_4.txt	m
S1_A	8	1	8	0	175.1687	d	187.4736	d	1	3	2	>,<,<	r,l,l	NavClipsFinalCutRand/GR_st9_5000_3c_2/Position/position_0.txt	n
S1_A	9	1	9	0	200.1954	d	215.3178	d	1	2	3	>,<,>	r,l,r	NavClipsFinalCutRand/GR_st9_5000_3c_1/Position/position_5.txt	m
S1_A	10	1	10	0	225.2219	s	232.7082	s	1	2	2	<,>,>	l,r,r	NavClipsFinalCutRand/GR_st9_5000_3c_1/Position/position_6.txt	m
S1_A	11	1	11	0	250.2487	d	254.9334	d	1	3	2	<,<,>	l,l,r	NavClipsFinalCutRand/GR_st9_5000_3c_2/Position/position_1.txt	n
S1_A	12	1	12	0	275.2583	s	278.4263	s	1	3	3	>,<,<	r,l,l	NavClipsFinalCutRand/GR_st9_5000_3c_2/Position/position_2.txt	n
S1_A	13	1	13	0	300.2854	s	310.7233	s	1	3	3	<,<,>	l,l,r	NavClipsFinalCutRand/GR_st9_5000_3c_2/Position/position_3.txt	n
S1_A	14	1	14	0	325.3124	s	343.903	s	1	3	3	>,>,<	r,r,l	NavClipsFinalCutRand/GR_st9_5000_3c_2/Position/position_4.txt	n
S1_A	15	1	15	0	350.3392	d	355.908	d	1	1	3	<,>,<	l,r,l	NavClipsFinalCutRand/GR_st9_5000_3c_0/Position/position_2.txt	t
S1_A	16	1	16	0	375.3492	s	388.2877	s	1	1	1	>,>,>	r,r,r	NavClipsFinalCutRand/GR_st9_5000_3c_0/Position/position_3.txt	t
S1_A	17	1	17	0	400.3759	s	414.0979	d	0	3	1	>,>,<	r,r,l	NavClipsFinalCutRand/GR_st9_5000_3c_2/Position/position_5.txt	n
S1_A	18	1	18	0	425.4028	s	444.5268	d	0	1	3	>,>,<	r,r,l	NavClipsFinalCutRand/GR_st9_5000_3c_0/Position/position_4.txt	t
S1_A	19	1	19	0	450.4293	s	466.1856	s	1	1	1	<,<,>	l,l,r	NavClipsFinalCutRand/GR_st9_5000_3c_0/Position/position_5.txt	t
S1_A	20	1	20	0	475.4397	s	493.3138	s	1	1	1	<,>,>	l,r,r	NavClipsFinalCutRand/GR_st9_5000_3c_0/Position/position_6.txt	t
S1_A	21	1	21	0	500.4663	d	512.238	d	1	3	1	<,>,>	l,r,r	NavClipsFinalCutRand/GR_st9_5000_3c_2/Position/position_6.txt	n
S1_A	22	1	22	0	525.4924	d	528.2604	s	0	3	3	<,<,>	l,l,r	NavClipsFinalCutRand/GR_st9_5000_3c_2/Position/position_7.txt	n
S1_A	23	1	23	0	550.5194	d	557.5384	s	0	3	3	<,>,>	l,r,r	NavClipsFinalCutRand/GR_st9_5000_3c_2/Position/position_8.txt	n
S1_A	24	1	24	0	575.5291	s	583.2322	s	1	3	3	>,<,<	r,l,l	NavClipsFinalCutRand/GR_st9_5000_3c_2/Position/position_9.txt	n
S1_A	25	1	25	0	600.5561	s	604.5909	d	0	2	3	>,<,>	r,l,r	NavClipsFinalCutRand/GR_st9_5000_3c_1/Position/position_7.txt	m
S1_A	26	1	1	1	0.03297603	nan	0	null	0	1	99	<,>,<	l,l,l	NavClipsFinalCutRand/GR_st9_5000_3c_0/Position/position_7.txt	t
S1_A	27	1	2	1	25.04298	d	28.41081	d	1	2	1	<,>,<	l,r,l	NavClipsFinalCutRand/GR_st9_5000_3c_1/Position/position_8.txt	m
S1_A	28	1	3	1	50.06957	s	57.63909	d	0	1	2	<,>,>	l,r,r	NavClipsFinalCutRand/GR_st9_5000_3c_0/Position/position_8.txt	t
S1_A	29	1	4	1	75.07948	d	80.73161	d	1	2	1	>,>,>	r,r,r	NavClipsFinalCutRand/GR_st9_5000_3c_1/Position/position_9.txt	m
S1_A	30	1	5	1	100.1062	d	106.3251	d	1	1	2	<,>,>	l,r,r	NavClipsFinalCutRand/GR_st9_5000_3c_0/Position/position_9.txt	t
S1_A	31	1	6	1	125.1159	s	145.0408	d	0	3	1	<,>,<	l,r,l	NavClipsFinalCutRand/GR_st9_5000_3c_2/Position/position_10.txt	n
S1_A	32	1	7	1	150.1426	s	163.531	s	1	3	3	>,>,>	r,r,r	NavClipsFinalCutRand/GR_st9_5000_3c_2/Position/position_11.txt	n
S1_A	33	1	8	1	175.1694	s	193.8264	d	0	1	3	<,<,>	l,l,r	NavClipsFinalCutRand/GR_st9_5000_3c_0/Position/position_10.txt	t
S1_A	34	1	9	1	200.1958	d	217.5196	s	0	1	1	>,>,<	r,r,l	NavClipsFinalCutRand/GR_st9_5000_3c_0/Position/position_11.txt	t
S1_A	35	1	10	1	225.2057	d	231.6081	s	0	1	1	>,<,<	r,l,l	NavClipsFinalCutRand/GR_st9_5000_3c_0/Position/position_12.txt	t
S1_A	36	1	11	1	250.2156	d	256.6515	d	1	2	1	<,<,>	l,l,r	NavClipsFinalCutRand/GR_st9_5000_3c_1/Position/position_10.txt	m
S1_A	37	1	12	1	275.2422	s	288.6305	s	1	2	2	>,<,>	r,l,r	NavClipsFinalCutRand/GR_st9_5000_3c_1/Position/position_11.txt	m
S1_A	38	1	13	1	300.2689	s	318.1927	s	1	2	2	<,>,>	l,r,r	NavClipsFinalCutRand/GR_st9_5000_3c_1/Position/position_12.txt	m
S1_A	39	1	14	1	325.279	s	343.9702	d	0	3	2	>,<,>	r,l,r	NavClipsFinalCutRand/GR_st9_5000_3c_2/Position/position_12.txt	n
S1_A	40	1	15	1	350.3059	s	356.1864	d	0	2	3	>,>,>	r,r,r	NavClipsFinalCutRand/GR_st9_5000_3c_1/Position/position_13.txt	m
S1_A	41	1	16	1	375.3325	d	379.0005	d	1	3	2	>,>,<	r,r,l	NavClipsFinalCutRand/GR_st9_5000_3c_2/Position/position_13.txt	n
S1_A	42	1	17	1	400.3589	d	408.0118	s	0	3	3	<,>,>	l,r,r	NavClipsFinalCutRand/GR_st9_5000_3c_2/Position/position_14.txt	n
S1_A	43	1	18	1	425.3685	s	432.571	d	0	1	3	>,<,<	r,l,l	NavClipsFinalCutRand/GR_st9_5000_3c_0/Position/position_13.txt	t
S1_A	44	1	19	1	450.395	d	455.5639	d	1	2	1	<,<,>	l,l,r	NavClipsFinalCutRand/GR_st9_5000_3c_1/Position/position_14.txt	m
S1_A	45	1	20	1	475.4216	s	478.5228	s	1	2	2	>,>,>	r,r,r	NavClipsFinalCutRand/GR_st9_5000_3c_1/Position/position_15.txt	m
S1_A	46	1	21	1	500.4486	d	508.4684	d	1	1	2	<,<,>	l,l,r	NavClipsFinalCutRand/GR_st9_5000_3c_0/Position/position_14.txt	t
S1_A	47	1	22	1	525.4586	s	541.031	s	1	1	1	<,<,>	l,l,r	NavClipsFinalCutRand/GR_st9_5000_3c_0/Position/position_15.txt	t
S1_A	48	1	23	1	550.485	d	563.8403	d	1	3	1	>,>,<	r,r,l	NavClipsFinalCutRand/GR_st9_5000_3c_2/Position/position_15.txt	n
S1_A	49	1	24	1	575.5122	d	582.7319	d	1	1	3	<,<,>	l,l,r	NavClipsFinalCutRand/GR_st9_5000_3c_0/Position/position_16.txt	t
S1_A	50	1	25	1	600.5393	s	613.6284	s	1	1	1	>,<,>	r,l,r	NavClipsFinalCutRand/GR_st9_5000_3c_0/Position/position_17.txt	t
S1_A	51	1	1	2	0.03394604	nan	0	null	0	3	99	>,>,<	r,r,l	NavClipsFinalCutRand/GR_st9_5000_3c_2/Position/position_16.txt	n
S1_A	52	1	2	2	25.05986	d	38.88217	d	1	2	3	>,>,<	r,r,l	NavClipsFinalCutRand/GR_st9_5000_3c_1/Position/position_16.txt	m
S1_A	53	1	3	2	50.1032	s	60.84098	d	0	3	2	>,<,>	r,l,r	NavClipsFinalCutRand/GR_st9_5000_3c_2/Position/position_17.txt	n
S1_A	54	1	4	2	75.12988	s	91.86978	d	0	1	3	>,<,>	r,l,r	NavClipsFinalCutRand/GR_st9_5000_3c_0/Position/position_18.txt	t
S1_A	55	1	5	2	100.1565	s	104.458	s	1	1	1	>,>,<	r,r,l	NavClipsFinalCutRand/GR_st9_5000_3c_0/Position/position_19.txt	t
S1_A	56	1	6	2	125.1831	d	142.5403	d	1	3	1	>,<,>	r,l,r	NavClipsFinalCutRand/GR_st9_5000_3c_2/Position/position_18.txt	n
S1_A	57	1	7	2	150.2095	s	160.7973	d	0	1	3	<,<,<	l,l,l	NavClipsFinalCutRand/GR_st9_5000_3c_0/Position/position_20.txt	t
S1_A	58	1	8	2	175.2197	d	181.9892	s	0	1	1	>,>,<	r,r,l	NavClipsFinalCutRand/GR_st9_5000_3c_0/Position/position_21.txt	t
S1_A	59	1	9	2	200.2462	d	205.682	d	1	3	1	<,<,<	l,l,l	NavClipsFinalCutRand/GR_st9_5000_3c_2/Position/position_19.txt	n
S1_A	60	1	10	2	225.2728	s	235.7606	s	1	3	3	<,>,>	l,r,r	NavClipsFinalCutRand/GR_st9_5000_3c_2/Position/position_20.txt	n
S1_A	61	1	11	2	250.2997	s	260.8541	s	1	3	3	>,<,<	r,l,l	NavClipsFinalCutRand/GR_st9_5000_3c_2/Position/position_21.txt	n
S1_A	62	1	12	2	275.3096	d	287.7149	s	0	3	3	<,<,<	l,l,l	NavClipsFinalCutRand/GR_st9_5000_3c_2/Position/position_22.txt	n
S1_A	63	1	13	2	300.3362	d	311.2077	d	1	1	3	<,>,>	l,r,r	NavClipsFinalCutRand/GR_st9_5000_3c_0/Position/position_22.txt	t
S1_A	64	1	14	2	325.363	s	344.9213	d	0	2	1	<,<,<	l,l,l	NavClipsFinalCutRand/GR_st9_5000_3c_1/Position/position_17.txt	m
S1_A	65	1	15	2	350.3901	d	358.3435	s	0	2	2	<,<,<	l,l,l	NavClipsFinalCutRand/GR_st9_5000_3c_1/Position/position_18.txt	m
S1_A	66	1	16	2	375.4004	d	383.0367	s	0	2	2	>,>,<	r,r,l	NavClipsFinalCutRand/GR_st9_5000_3c_1/Position/position_19.txt	m
S1_A	67	1	17	2	400.4268	d	408.1633	d	1	1	2	<,<,>	l,l,r	NavClipsFinalCutRand/GR_st9_5000_3c_0/Position/position_23.txt	t
S1_A	68	1	18	2	425.4533	s	437.6081	s	1	1	1	<,<,<	l,l,l	NavClipsFinalCutRand/GR_st9_5000_3c_0/Position/position_24.txt	t
S1_A	69	1	19	2	450.4797	s	458.2662	s	1	1	1	>,>,<	r,r,l	NavClipsFinalCutRand/GR_st9_5000_3c_0/Position/position_25.txt	t
S1_A	70	1	20	2	475.4898	d	482.4925	d	1	3	1	>,<,>	r,l,r	NavClipsFinalCutRand/GR_st9_5000_3c_2/Position/position_23.txt	n
S1_A	71	1	21	2	500.5163	s	509.9203	s	1	3	3	>,>,>	r,r,r	NavClipsFinalCutRand/GR_st9_5000_3c_2/Position/position_24.txt	n
S1_A	72	1	22	2	525.5435	d	539.9661	s	0	3	3	>,<,>	r,l,r	NavClipsFinalCutRand/GR_st9_5000_3c_2/Position/position_25.txt	n
S1_A	73	1	23	2	550.5708	s	557.0899	d	0	2	3	<,<,<	l,l,l	NavClipsFinalCutRand/GR_st9_5000_3c_1/Position/position_20.txt	m
S1_A	74	1	24	2	575.5804	d	590.2529	d	1	3	2	<,>,>	l,r,r	NavClipsFinalCutRand/GR_st9_5000_3c_2/Position/position_26.txt	n
S1_A	75	1	25	2	600.6064	d	606.7419	d	1	2	3	>,<,>	r,r,l	NavClipsFinalCutRand/GR_st9_5000_3c_1/Position/position_21.txt	m
S1_A	76	1	1	3	0.03325504	nan	0	null	0	1	99	<,<,>	l,l,r	NavClipsFinalCutRand/GR_st9_5000_3c_0/Position/position_26.txt	t
S1_A	77	1	2	3	25.05988	s	29.89518	s	1	1	1	>,<,<	r,l,l	NavClipsFinalCutRand/GR_st9_5000_3c_0/Position/position_27.txt	t
S1_A	78	1	3	3	50.08661	d	58.97333	d	1	2	1	<,<,<	l,l,l	NavClipsFinalCutRand/GR_st9_5000_3c_1/Position/position_22.txt	m
S1_A	79	1	4	3	75.11308	s	86.56771	s	1	2	2	>,>,<	r,r,l	NavClipsFinalCutRand/GR_st9_5000_3c_1/Position/position_23.txt	m
S1_A	80	1	5	3	100.123	s	105.4918	s	1	2	2	<,<,<	l,l,l	NavClipsFinalCutRand/GR_st9_5000_3c_1/Position/position_24.txt	m
S1_A	81	1	6	3	125.1495	d	130.8187	d	1	3	2	<,<,<	l,l,l	NavClipsFinalCutRand/GR_st9_5000_3c_2/Position/position_27.txt	n
S1_A	82	1	7	3	150.1762	d	165.7328	s	0	3	3	>,>,>	r,r,r	NavClipsFinalCutRand/GR_st9_5000_3c_2/Position/position_28.txt	n
S1_A	83	1	8	3	175.2031	d	176.6371	s	0	3	3	>,>,<	r,r,l	NavClipsFinalCutRand/GR_st9_5000_3c_2/Position/position_29.txt	n
S1_A	84	1	9	3	200.2131	s	202.6143	d	0	2	3	>,>,<	r,r,l	NavClipsFinalCutRand/GR_st9_5000_3c_1/Position/position_25.txt	m
S1_A	85	1	10	3	225.2397	s	232.7105	d	0	1	2	<,>,>	l,r,r	NavClipsFinalCutRand/GR_st9_5000_3c_0/Position/position_28.txt	t
S1_A	86	1	11	3	250.2664	s	256.1525	s	1	1	1	>,>,<	r,r,l	NavClipsFinalCutRand/GR_st9_5000_3c_0/Position/position_29.txt	t
S1_A	87	1	12	3	275.2929	s	292.2828	d	0	3	1	<,>,<	l,r,l	NavClipsFinalCutRand/GR_st9_5000_3c_2/Position/position_30.txt	n
S1_A	88	1	13	3	300.3026	s	305.8382	s	1	3	3	>,>,>	r,r,r	NavClipsFinalCutRand/GR_st9_5000_3c_2/Position/position_31.txt	n
S1_A	89	1	14	3	325.329	s	332.8988	d	0	2	3	<,<,>	l,l,r	NavClipsFinalCutRand/GR_st9_5000_3c_1/Position/position_26.txt	m
S1_A	90	1	15	3	350.3555	d	352.8236	d	1	1	2	<,<,>	l,l,r	NavClipsFinalCutRand/GR_st9_5000_3c_0/Position/position_30.txt	t
S1_A	91	1	16	3	375.3821	s	383.4017	d	0	2	1	>,>,<	r,r,l	NavClipsFinalCutRand/GR_st9_5000_3c_1/Position/position_27.txt	m
S1_A	92	1	17	3	400.3917	d	406.061	d	1	3	2	<,<,>	l,l,r	NavClipsFinalCutRand/GR_st9_5000_3c_2/Position/position_32.txt	n
S1_A	93	1	18	3	425.4182	d	434.3219	d	1	1	3	>,<,<	r,l,l	NavClipsFinalCutRand/GR_st9_5000_3c_0/Position/position_31.txt	t
S1_A	94	1	19	3	450.4448	d	467.4349	d	1	3	1	<,<,<	l,l,l	NavClipsFinalCutRand/GR_st9_5000_3c_2/Position/position_33.txt	n
S1_A	95	1	20	3	475.4718	s	478.9231	s	1	3	3	<,>,<	l,r,l	NavClipsFinalCutRand/GR_st9_5000_3c_2/Position/position_34.txt	n
S1_A	96	1	21	3	500.4816	s	512.1198	d	0	1	3	<,>,>	l,r,r	NavClipsFinalCutRand/GR_st9_5000_3c_0/Position/position_32.txt	t
S1_A	97	1	22	3	525.5091	s	541.0319	s	1	1	1	<,<,<	l,l,l	NavClipsFinalCutRand/GR_st9_5000_3c_0/Position/position_33.txt	t
S1_A	98	1	23	3	550.5355	d	556.338	s	0	1	1	>,<,>	r,l,r	NavClipsFinalCutRand/GR_st9_5000_3c_0/Position/position_34.txt	t
S1_A	99	1	24	3	575.5624	s	586.6167	s	1	1	1	<,>,>	l,r,r	NavClipsFinalCutRand/GR_st9_5000_3c_0/Position/position_35.txt	t
S1_A	100	1	25	3	600.5714	d	612.7765	d	1	3	1	<,<,>	l,l,r	NavClipsFinalCutRand/GR_st9_5000_3c_2/Position/position_35.txt	n
S3_A	1	2	1	0	0.03316098	nan	0	null	0	2	99	>,>,<	r,r,l	NavClipsFinalCutRand/GR_st9_5000_3c_1/Position/position_1.txt	m
S3_A	2	2	2	0	25.05981	s	33.3301	s	1	2	2	>,>,>	r,r,r	NavClipsFinalCutRand/GR_st9_5000_3c_1/Position/position_2.txt	m
S3_A	3	2	3	0	50.08651	d	64.29233	d	1	1	2	>,<,<	r,l,l	NavClipsFinalCutRand/GR_st9_5000_3c_0/Position/position_0.txt	t
S3_A	4	2	4	0	75.11301	d	85.16711	s	0	1	1	<,<,<	l,l,l	NavClipsFinalCutRand/GR_st9_5000_3c_0/Position/position_1.txt	t
S3_A	5	2	5	0	100.1396	s	112.0279	d	0	2	1	>,>,>	r,r,r	NavClipsFinalCutRand/GR_st9_5000_3c_1/Position/position_3.txt	m
S3_A	6	2	6	0	125.1497	s	141.056	s	1	2	2	<,<,<	l,l,l	NavClipsFinalCutRand/GR_st9_5000_3c_1/Position/position_4.txt	m
S3_A	7	2	7	0	150.1762	s	164.2664	s	1	2	2	>,>,>	r,r,r	NavClipsFinalCutRand/GR_st9_5000_3c_1/Position/position_5.txt	m
S3_A	8	2	8	0	175.2029	d	183.9398	d	1	3	2	>,<,>	r,l,r	NavClipsFinalCutRand/GR_st9_5000_3c_2/Position/position_0.txt	n
S3_A	9	2	9	0	200.2296	d	214.1854	d	1	2	3	<,<,>	l,l,r	NavClipsFinalCutRand/GR_st9_5000_3c_1/Position/position_6.txt	m
S3_A	10	2	10	0	225.2392	s	240.0788	s	1	2	2	<,<,>	l,l,r	NavClipsFinalCutRand/GR_st9_5000_3c_1/Position/position_7.txt	m
S3_A	11	2	11	0	250.266	s	269.4571	d	0	3	2	>,>,>	r,r,r	NavClipsFinalCutRand/GR_st9_5000_3c_2/Position/position_1.txt	n
S3_A	12	2	12	0	275.2927	s	292.2827	s	1	3	3	<,>,>	l,r,r	NavClipsFinalCutRand/GR_st9_5000_3c_2/Position/position_2.txt	n
S3_A	13	2	13	0	300.3197	d	304.3383	s	0	3	3	>,<,>	r,l,l	NavClipsFinalCutRand/GR_st9_5000_3c_2/Position/position_3.txt	n
S3_A	14	2	14	0	325.3296	s	336.0675	s	1	3	3	<,>,<	l,r,l	NavClipsFinalCutRand/GR_st9_5000_3c_2/Position/position_4.txt	n
S3_A	15	2	15	0	350.3561	d	363.0613	d	1	1	3	<,<,<	l,l,l	NavClipsFinalCutRand/GR_st9_5000_3c_0/Position/position_2.txt	t
S3_A	16	2	16	0	375.3832	nan	0	s	0	1	1	<,<,>	l,l,r	NavClipsFinalCutRand/GR_st9_5000_3c_0/Position/position_3.txt	t
S3_A	17	2	17	0	400.4099	d	406.0619	d	1	3	1	>,<,>	r,l,r	NavClipsFinalCutRand/GR_st9_5000_3c_2/Position/position_5.txt	n
S3_A	18	2	18	0	425.42	d	437.3913	d	1	1	3	>,<,>	r,l,r	NavClipsFinalCutRand/GR_st9_5000_3c_0/Position/position_4.txt	t
S3_A	19	2	19	0	450.4462	d	464.4517	s	0	1	1	>,<,<	r,l,l	NavClipsFinalCutRand/GR_st9_5000_3c_0/Position/position_5.txt	t
S3_A	20	2	20	0	475.4731	d	483.2758	s	0	1	1	>,<,<	r,l,l	NavClipsFinalCutRand/GR_st9_5000_3c_0/Position/position_6.txt	t
S3_A	21	2	21	0	500.4995	d	514.5636	d	1	3	1	<,>,>	l,r,r	NavClipsFinalCutRand/GR_st9_5000_3c_2/Position/position_6.txt	n
S3_A	22	2	22	0	525.5428	s	534.0129	s	1	3	3	>,>,>	r,r,r	NavClipsFinalCutRand/GR_st9_5000_3c_2/Position/position_7.txt	n
S3_A	23	2	23	0	550.5368	s	567.6944	s	1	3	3	<,<,>	l,l,r	NavClipsFinalCutRand/GR_st9_5000_3c_2/Position/position_8.txt	n
S3_A	24	2	24	0	575.5641	d	589.0861	s	0	3	3	>,<,<	r,l,l	NavClipsFinalCutRand/GR_st9_5000_3c_2/Position/position_9.txt	n
S3_A	25	2	25	0	600.5911	d	619.1268	d	1	2	3	<,>,>	l,r,r	NavClipsFinalCutRand/GR_st9_5000_3c_1/Position/position_8.txt	m
S3_A	26	2	1	1	0.03321701	nan	0	null	0	1	99	<,<,<	l,l,l	NavClipsFinalCutRand/GR_st9_5000_3c_0/Position/position_7.txt	t
S3_A	27	2	2	1	25.04328	d	37.28128	d	1	2	1	>,<,>	r,l,r	NavClipsFinalCutRand/GR_st9_5000_3c_1/Position/position_9.txt	m
S3_A	28	2	3	1	50.06979	nan	0	d	0	1	2	<,>,<	l,r,l	NavClipsFinalCutRand/GR_st9_5000_3c_0/Position/position_8.txt	t
S3_A	29	2	4	1	75.09657	d	81.31543	d	1	2	1	<,>,>	l,r,r	NavClipsFinalCutRand/GR_st9_5000_3c_1/Position/position_10.txt	m
S3_A	30	2	5	1	100.1231	s	106.1088	d	0	1	2	<,>,<	l,r,l	NavClipsFinalCutRand/GR_st9_5000_3c_0/Position/position_9.txt	t
S3_A	31	2	6	1	125.133	d	137.4212	d	1	3	1	>,<,<	r,l,l	NavClipsFinalCutRand/GR_st9_5000_3c_2/Position/position_10.txt	n
S3_A	32	2	7	1	150.1595	d	165.0987	s	0	3	3	<,>,<	l,r,l	NavClipsFinalCutRand/GR_st9_5000_3c_2/Position/position_11.txt	n
S3_A	33	2	8	1	175.1694	s	184.2896	d	0	1	3	>,>,>	r,r,r	NavClipsFinalCutRand/GR_st9_5000_3c_0/Position/position_10.txt	t
S3_A	34	2	9	1	200.1958	d	217.7994	s	0	1	1	<,<,>	l,r,r	NavClipsFinalCutRand/GR_st9_5000_3c_0/Position/position_11.txt	t
S3_A	35	2	10	1	225.2057	s	226.9731	s	1	1	1	>,<,>	r,l,r	NavClipsFinalCutRand/GR_st9_5000_3c_0/Position/position_12.txt	t
S3_A	36	2	11	1	250.2322	d	264.0212	d	1	2	1	>,<,<	r,l,l	NavClipsFinalCutRand/GR_st9_5000_3c_1/Position/position_11.txt	m
S3_A	37	2	12	1	275.2588	d	286.313	s	0	2	2	>,<,>	r,l,r	NavClipsFinalCutRand/GR_st9_5000_3c_1/Position/position_12.txt	m
S3_A	38	2	13	1	300.2852	d	317.6755	s	0	2	2	>,>,<	r,r,l	NavClipsFinalCutRand/GR_st9_5000_3c_1/Position/position_13.txt	m
S3_A	39	2	14	1	325.2951	d	335.899	d	1	3	2	>,>,<	r,r,l	NavClipsFinalCutRand/GR_st9_5000_3c_2/Position/position_12.txt	n
S3_A	40	2	15	1	350.3055	d	368.9285	d	1	2	3	<,>,>	l,r,r	NavClipsFinalCutRand/GR_st9_5000_3c_1/Position/position_14.txt	m
S3_A	41	2	16	1	375.3313	s	385.0543	d	0	3	2	>,<,>	r,l,r	NavClipsFinalCutRand/GR_st9_5000_3c_2/Position/position_13.txt	n
S3_A	42	2	17	1	400.358	s	415.4471	s	1	3	3	<,<,>	l,l,r	NavClipsFinalCutRand/GR_st9_5000_3c_2/Position/position_14.txt	n
S3_A	43	2	18	1	425.368	d	433.0042	d	1	1	3	>,>,>	r,r,r	NavClipsFinalCutRand/GR_st9_5000_3c_0/Position/position_13.txt	t
S3_A	44	2	19	1	450.3947	s	464.8168	d	0	2	1	>,<,>	r,l,r	NavClipsFinalCutRand/GR_st9_5000_3c_1/Position/position_15.txt	m
S3_A	45	2	20	1	475.4211	d	488.3763	s	0	2	2	<,<,<	l,l,l	NavClipsFinalCutRand/GR_st9_5000_3c_1/Position/position_16.txt	m
S3_A	46	2	21	1	500.4478	d	509.4015	d	1	1	2	<,<,<	l,l,l	NavClipsFinalCutRand/GR_st9_5000_3c_0/Position/position_14.txt	t
S3_A	47	2	22	1	525.4579	s	540.1639	s	1	1	1	>,<,<	r,l,l	NavClipsFinalCutRand/GR_st9_5000_3c_0/Position/position_15.txt	t
S3_A	48	2	23	1	550.4847	s	566.8412	d	0	3	1	<,<,<	l,l,l	NavClipsFinalCutRand/GR_st9_5000_3c_2/Position/position_15.txt	n
S3_A	49	2	24	1	575.5116	d	590.8008	d	1	1	3	>,<,<	r,l,l	NavClipsFinalCutRand/GR_st9_5000_3c_0/Position/position_16.txt	t
S3_A	50	2	25	1	600.5384	s	616.0944	s	1	1	1	>,>,>	r,r,r	NavClipsFinalCutRand/GR_st9_5000_3c_0/Position/position_17.txt	t
S3_A	51	2	1	2	0.03333098	nan	0	null	0	3	99	<,>,<	l,r,l	NavClipsFinalCutRand/GR_st9_5000_3c_2/Position/position_16.txt	n
S3_A	52	2	2	2	25.04334	nan	0	d	0	2	3	<,>,<	l,r,l	NavClipsFinalCutRand/GR_st9_5000_3c_1/Position/position_17.txt	m
S3_A	53	2	3	2	50.06994	s	67.2603	d	0	3	2	>,<,>	r,l,r	NavClipsFinalCutRand/GR_st9_5000_3c_2/Position/position_17.txt	n
S3_A	54	2	4	2	75.09644	d	85.16756	d	1	1	3	<,>,>	l,r,r	NavClipsFinalCutRand/GR_st9_5000_3c_0/Position/position_18.txt	t
S3_A	55	2	5	2	100.1234	d	115.2799	s	0	1	1	>,<,<	r,l,l	NavClipsFinalCutRand/GR_st9_5000_3c_0/Position/position_19.txt	t
S3_A	56	2	6	2	125.1498	s	144.4911	d	0	3	1	<,<,<	l,l,l	NavClipsFinalCutRand/GR_st9_5000_3c_2/Position/position_18.txt	n
S3_A	57	2	7	2	150.1598	d	161.4311	d	1	1	3	>,>,>	r,r,r	NavClipsFinalCutRand/GR_st9_5000_3c_0/Position/position_20.txt	t
S3_A	58	2	8	2	175.1862	s	183.1893	s	1	1	1	<,>,>	l,r,r	NavClipsFinalCutRand/GR_st9_5000_3c_0/Position/position_21.txt	t
S3_A	59	2	9	2	200.2131	d	218.3703	d	1	3	1	<,>,<	l,r,l	NavClipsFinalCutRand/GR_st9_5000_3c_2/Position/position_19.txt	n
S3_A	60	2	10	2	225.223	s	232.959	s	1	3	3	<,<,>	l,l,r	NavClipsFinalCutRand/GR_st9_5000_3c_2/Position/position_20.txt	n
S3_A	61	2	11	2	250.2492	s	265.7056	s	1	3	3	>,>,<	r,r,l	NavClipsFinalCutRand/GR_st9_5000_3c_2/Position/position_21.txt	n
S3_A	62	2	12	2	275.2595	s	290.0485	s	1	3	3	>,>,<	r,r,l	NavClipsFinalCutRand/GR_st9_5000_3c_2/Position/position_22.txt	n
S3_A	63	2	13	2	300.2859	d	311.9404	d	1	1	3	>,<,>	r,l,r	NavClipsFinalCutRand/GR_st9_5000_3c_0/Position/position_22.txt	t
S3_A	64	2	14	2	325.2957	s	338.7677	d	0	2	1	>,>,<	r,r,l	NavClipsFinalCutRand/GR_st9_5000_3c_1/Position/position_18.txt	m
S3_A	65	2	15	2	350.3225	d	362.8274	s	0	2	2	<,>,<	l,r,l	NavClipsFinalCutRand/GR_st9_5000_3c_1/Position/position_19.txt	m
S3_A	66	2	16	2	375.3494	nan	0	s	0	2	2	>,<,>	r,r,r	NavClipsFinalCutRand/GR_st9_5000_3c_1/Position/position_20.txt	m
S3_A	67	2	17	2	400.3762	d	408.896	d	1	1	2	<,>,>	l,r,r	NavClipsFinalCutRand/GR_st9_5000_3c_0/Position/position_23.txt	t
S3_A	68	2	18	2	425.4028	d	430.0212	s	0	1	1	<,>,<	l,r,l	NavClipsFinalCutRand/GR_st9_5000_3c_0/Position/position_24.txt	t
S3_A	69	2	19	2	450.4129	s	459.6165	s	1	1	1	<,<,>	l,l,r	NavClipsFinalCutRand/GR_st9_5000_3c_0/Position/position_25.txt	t
S3_A	70	2	20	2	475.4396	d	492.43	d	1	3	1	>,>,<	r,r,l	NavClipsFinalCutRand/GR_st9_5000_3c_2/Position/position_23.txt	n
S3_A	71	2	21	2	500.4666	d	507.0529	s	0	3	3	<,<,<	l,l,l	NavClipsFinalCutRand/GR_st9_5000_3c_2/Position/position_24.txt	n
S3_A	72	2	22	2	525.4766	s	539.7499	s	1	3	3	<,<,<	l,l,l	NavClipsFinalCutRand/GR_st9_5000_3c_2/Position/position_25.txt	n
S3_A	73	2	23	2	550.5039	d	563.3094	d	1	2	3	>,>,>	r,r,r	NavClipsFinalCutRand/GR_st9_5000_3c_1/Position/position_21.txt	m
S3_A	74	2	24	2	575.5319	d	583.0015	d	1	3	2	<,>,>	l,r,r	NavClipsFinalCutRand/GR_st9_5000_3c_2/Position/position_26.txt	n
S3_A	75	2	25	2	600.5584	d	605.6938	d	1	2	3	<,>,>	l,r,r	NavClipsFinalCutRand/GR_st9_5000_3c_1/Position/position_22.txt	m
S3_A	76	2	1	3	0.03335798	d	12.07164	null	0	1	99	<,>,>	l,r,r	NavClipsFinalCutRand/GR_st9_5000_3c_0/Position/position_26.txt	t
S3_A	77	2	2	3	25.05992	d	43.25512	s	0	1	1	>,<,>	r,l,r	NavClipsFinalCutRand/GR_st9_5000_3c_0/Position/position_27.txt	t
S3_A	78	2	3	3	50.08649	s	62.84163	d	0	2	1	<,>,<	l,r,l	NavClipsFinalCutRand/GR_st9_5000_3c_1/Position/position_23.txt	m
S3_A	79	2	4	3	75.11333	d	93.97061	s	0	2	2	<,<,>	l,l,r	NavClipsFinalCutRand/GR_st9_5000_3c_1/Position/position_24.txt	m
S3_A	80	2	5	3	100.1231	s	104.0247	s	1	2	2	<,>,<	l,r,l	NavClipsFinalCutRand/GR_st9_5000_3c_1/Position/position_25.txt	m
S3_A	81	2	6	3	125.1497	d	140.7064	d	1	3	2	>,<,>	l,l,r	NavClipsFinalCutRand/GR_st9_5000_3c_2/Position/position_27.txt	n
S3_A	82	2	7	3	150.1772	d	158.78	s	0	3	3	>,>,>	r,r,r	NavClipsFinalCutRand/GR_st9_5000_3c_2/Position/position_28.txt	n
S3_A	83	2	8	3	175.2033	s	187.0577	s	1	3	3	<,>,>	l,r,r	NavClipsFinalCutRand/GR_st9_5000_3c_2/Position/position_29.txt	n
S3_A	84	2	9	3	200.2133	d	217.2197	d	1	2	3	<,>,<	l,r,l	NavClipsFinalCutRand/GR_st9_5000_3c_1/Position/position_26.txt	m
S3_A	85	2	10	3	225.2397	d	236.9444	d	1	1	2	<,<,>	r,r,r	NavClipsFinalCutRand/GR_st9_5000_3c_0/Position/position_28.txt	t
S3_A	86	2	11	3	250.2663	s	255.7014	s	1	1	1	>,<,>	r,l,r	NavClipsFinalCutRand/GR_st9_5000_3c_0/Position/position_29.txt	t
S3_A	87	2	12	3	275.2928	d	295.1311	d	1	3	1	>,>,<	r,r,l	NavClipsFinalCutRand/GR_st9_5000_3c_2/Position/position_30.txt	n
S3_A	88	2	13	3	300.3027	s	317.7593	s	1	3	3	>,>,<	r,r,l	NavClipsFinalCutRand/GR_st9_5000_3c_2/Position/position_31.txt	n
S3_A	89	2	14	3	325.3291	d	338.4677	d	1	2	3	>,<,>	r,l,r	NavClipsFinalCutRand/GR_st9_5000_3c_1/Position/position_27.txt	m
S3_A	90	2	15	3	350.3559	d	368.8129	d	1	1	2	>,<,>	r,l,r	NavClipsFinalCutRand/GR_st9_5000_3c_0/Position/position_30.txt	t
S3_A	91	2	16	3	375.3825	s	384.1029	d	0	2	1	>,<,<	r,l,l	NavClipsFinalCutRand/GR_st9_5000_3c_1/Position/position_28.txt	m
S3_A	92	2	17	3	400.3927	d	408.2292	d	1	3	2	>,>,>	r,r,r	NavClipsFinalCutRand/GR_st9_5000_3c_2/Position/position_32.txt	n
S3_A	93	2	18	3	425.4196	d	427.3205	d	1	1	3	>,>,>	r,r,r	NavClipsFinalCutRand/GR_st9_5000_3c_0/Position/position_31.txt	t
S3_A	94	2	19	3	450.446	d	461.1505	d	1	3	1	>,<,>	r,l,r	NavClipsFinalCutRand/GR_st9_5000_3c_2/Position/position_33.txt	n
S3_A	95	2	20	3	475.4734	s	487.3939	s	1	3	3	<,<,>	l,l,r	NavClipsFinalCutRand/GR_st9_5000_3c_2/Position/position_34.txt	n
S3_A	96	2	21	3	500.4827	d	512.2206	d	1	1	3	<,<,>	l,l,r	NavClipsFinalCutRand/GR_st9_5000_3c_0/Position/position_32.txt	t
S3_A	97	2	22	3	525.5085	d	543.5327	s	0	1	1	>,>,<	r,r,l	NavClipsFinalCutRand/GR_st9_5000_3c_0/Position/position_33.txt	t
S3_A	98	2	23	3	550.5352	d	563.8896	s	0	1	1	<,<,<	l,l,l	NavClipsFinalCutRand/GR_st9_5000_3c_0/Position/position_34.txt	t
S3_A	99	2	24	3	575.5606	d	590.2585	s	0	1	1	>,>,>	r,r,r	NavClipsFinalCutRand/GR_st9_5000_3c_0/Position/position_35.txt	t
S3_A	100	2	25	3	600.6048	d	609.775	d	1	3	1	<,<,<	l,l,l	NavClipsFinalCutRand/GR_st9_5000_3c_2/Position/position_35.txt	n
S4_A	1	3	1	0	0.01629299	nan	0	null	0	3	99	>,<,<	r,l,l	NavClipsFinalRand/GR_st9_5000_3c_2/Position/position_1.txt	n
S4_A	2	3	2	0	25.04281	d	40.19891	d	1	2	3	>,<,>	r,l,r	NavClipsFinalRand/GR_st9_5000_3c_1/Position/position_0.txt	m
S4_A	3	3	3	0	50.05282	d	63.97515	d	1	3	2	<,>,<	l,r,l	NavClipsFinalRand/GR_st9_5000_3c_2/Position/position_2.txt	n
S4_A	4	3	4	0	75.08004	s	85.26695	d	0	1	3	<,>,<	l,r,l	NavClipsFinalRand/GR_st9_5000_3c_0/Position/position_0.txt	t
S4_A	5	3	5	0	100.1061	d	113.6617	s	0	1	1	>,<,<	r,l,l	NavClipsFinalRand/GR_st9_5000_3c_0/Position/position_1.txt	t
S4_A	6	3	6	0	125.1168	d	136.2205	d	1	3	1	<,>,<	l,r,l	NavClipsFinalRand/GR_st9_5000_3c_2/Position/position_3.txt	n
S4_A	7	3	7	0	150.1426	d	161.8472	d	1	1	3	<,<,>	l,l,r	NavClipsFinalRand/GR_st9_5000_3c_0/Position/position_2.txt	t
S4_A	8	3	8	0	175.1689	s	184.2723	s	1	1	1	<,<,<	l,l,l	NavClipsFinalRand/GR_st9_5000_3c_0/Position/position_3.txt	t
S4_A	9	3	9	0	200.1954	d	210.0161	d	1	3	1	<,<,<	l,l,l	NavClipsFinalRand/GR_st9_5000_3c_2/Position/position_4.txt	n
S4_A	10	3	10	0	225.2221	s	235.3438	s	1	3	3	>,>,>	r,r,r	NavClipsFinalRand/GR_st9_5000_3c_2/Position/position_5.txt	n
S4_A	11	3	11	0	250.2321	s	258.5357	s	1	3	3	<,<,<	l,l,l	NavClipsFinalRand/GR_st9_5000_3c_2/Position/position_6.txt	n
S4_A	12	3	12	0	275.2592	d	293.2332	s	0	3	3	>,>,<	r,r,l	NavClipsFinalRand/GR_st9_5000_3c_2/Position/position_7.txt	n
S4_A	13	3	13	0	300.2692	d	305.955	d	1	1	3	<,<,<	l,l,l	NavClipsFinalRand/GR_st9_5000_3c_0/Position/position_4.txt	t
S4_A	14	3	14	0	325.2957	s	334.883	d	0	2	1	<,<,>	l,l,r	NavClipsFinalRand/GR_st9_5000_3c_1/Position/position_1.txt	m
S4_A	15	3	15	0	350.3056	d	356.5082	s	0	2	2	>,>,>	r,r,r	NavClipsFinalRand/GR_st9_5000_3c_1/Position/position_2.txt	m
S4_A	16	3	16	0	375.3326	d	394.9905	s	0	2	2	<,>,>	l,r,r	NavClipsFinalRand/GR_st9_5000_3c_1/Position/position_3.txt	m
S4_A	17	3	17	0	400.3599	d	416.5161	d	1	1	2	<,<,<	l,l,l	NavClipsFinalRand/GR_st9_5000_3c_0/Position/position_5.txt	t
S4_A	18	3	18	0	425.3861	s	435.073	s	1	1	1	<,<,>	l,l,r	NavClipsFinalRand/GR_st9_5000_3c_0/Position/position_6.txt	t
S4_A	19	3	19	0	450.3958	s	454.9312	s	1	1	1	>,>,<	r,r,l	NavClipsFinalRand/GR_st9_5000_3c_0/Position/position_7.txt	t
S4_A	20	3	20	0	475.4229	d	483.2927	d	1	3	1	<,>,>	l,r,r	NavClipsFinalRand/GR_st9_5000_3c_2/Position/position_8.txt	n
S4_A	21	3	21	0	500.4495	s	519.9409	s	1	3	3	<,<,<	l,l,l	NavClipsFinalRand/GR_st9_5000_3c_2/Position/position_9.txt	n
S4_A	22	3	22	0	525.4768	d	531.6957	s	0	3	3	<,<,<	l,l,l	NavClipsFinalRand/GR_st9_5000_3c_2/Position/position_10.txt	n
S4_A	23	3	23	0	550.4864	d	563.7913	d	1	2	3	>,<,<	r,l,l	NavClipsFinalRand/GR_st9_5000_3c_1/Position/position_4.txt	m
S4_A	24	3	24	0	575.5131	s	579.7482	d	0	3	2	>,<,<	r,l,l	NavClipsFinalRand/GR_st9_5000_3c_2/Position/position_11.txt	n
S4_A	25	3	25	0	600.5399	s	610.6269	d	0	2	3	>,<,>	r,l,r	NavClipsFinalRand/GR_st9_5000_3c_1/Position/position_5.txt	m
S4_A	26	3	1	1	0.01658297	nan	0	null	0	1	99	<,>,>	l,r,r	NavClipsFinalRand/GR_st9_5000_3c_0/Position/position_1.txt	t
S4_A	27	3	2	1	25.04335	s	34.86381	d	0	2	1	<,>,>	l,r,r	NavClipsFinalRand/GR_st9_5000_3c_1/Position/position_0.txt	m
S4_A	28	3	3	1	50.06976	s	64.09206	d	0	1	2	>,>,<	r,r,l	NavClipsFinalRand/GR_st9_5000_3c_0/Position/position_2.txt	t
S4_A	29	3	4	1	75.07989	d	87.25134	d	1	2	1	>,>,>	r,r,r	NavClipsFinalRand/GR_st9_5000_3c_1/Position/position_1.txt	m
S4_A	30	3	5	1	100.1236	s	113.3282	d	0	1	2	<,>,<	l,r,l	NavClipsFinalRand/GR_st9_5000_3c_0/Position/position_3.txt	t
S4_A	31	3	6	1	125.1331	d	138.9217	d	1	3	1	<,>,>	l,r,r	NavClipsFinalRand/GR_st9_5000_3c_2/Position/position_0.txt	n
S4_A	32	3	7	1	150.1595	d	170.1178	s	0	3	3	>,>,>	r,r,r	NavClipsFinalRand/GR_st9_5000_3c_2/Position/position_1.txt	n
S4_A	33	3	8	1	175.1696	s	186.2572	d	0	1	3	<,>,>	l,r,r	NavClipsFinalRand/GR_st9_5000_3c_0/Position/position_4.txt	t
S4_A	34	3	9	1	200.1795	d	214.5017	s	0	1	1	>,<,<	r,l,l	NavClipsFinalRand/GR_st9_5000_3c_0/Position/position_5.txt	t
S4_A	35	3	10	1	225.2068	d	234.0262	s	0	1	1	>,>,<	r,r,l	NavClipsFinalRand/GR_st9_5000_3c_0/Position/position_6.txt	t
S4_A	36	3	11	1	250.2327	s	266.2889	d	0	2	1	<,<,>	l,l,r	NavClipsFinalRand/GR_st9_5000_3c_1/Position/position_2.txt	m
S4_A	37	3	12	1	275.2432	s	292.1497	s	1	2	2	<,>,<	l,r,l	NavClipsFinalRand/GR_st9_5000_3c_1/Position/position_3.txt	m
S4_A	38	3	13	1	300.2694	s	312.3408	s	1	2	2	<,>,>	l,r,r	NavClipsFinalRand/GR_st9_5000_3c_1/Position/position_4.txt	m
S4_A	39	3	14	1	325.2794	s	339.3351	d	0	3	2	>,<,>	r,l,r	NavClipsFinalRand/GR_st9_5000_3c_2/Position/position_2.txt	n
S4_A	40	3	15	1	350.3065	d	361.6608	d	1	2	3	>,<,>	r,l,r	NavClipsFinalRand/GR_st9_5000_3c_1/Position/position_5.txt	m
S4_A	41	3	16	1	375.3163	d	384.1866	d	1	3	2	>,>,>	r,r,r	NavClipsFinalRand/GR_st9_5000_3c_2/Position/position_3.txt	n
S4_A	42	3	17	1	400.3434	d	409.9478	s	0	3	3	>,>,<	r,r,l	NavClipsFinalRand/GR_st9_5000_3c_2/Position/position_4.txt	n
S4_A	43	3	18	1	425.3703	d	431.439	d	1	1	3	>,>,<	r,r,l	NavClipsFinalRand/GR_st9_5000_3c_0/Position/position_7.txt	t
S4_A	44	3	19	1	450.3969	d	462.4516	d	1	2	1	<,<,>	l,l,r	NavClipsFinalRand/GR_st9_5000_3c_1/Position/position_6.txt	m
S4_A	45	3	20	1	475.4066	s	482.8763	s	1	2	2	>,<,>	r,l,r	NavClipsFinalRand/GR_st9_5000_3c_1/Position/position_7.txt	m
S4_A	46	3	21	1	500.4329	s	517.2234	d	0	1	2	>,<,<	r,l,l	NavClipsFinalRand/GR_st9_5000_3c_0/Position/position_8.txt	t
S4_A	47	3	22	1	525.4601	d	535.3472	s	0	1	1	<,>,<	l,r,l	NavClipsFinalRand/GR_st9_5000_3c_0/Position/position_9.txt	t
S4_A	48	3	23	1	550.4874	d	561.3418	d	1	3	1	>,>,>	r,r,r	NavClipsFinalRand/GR_st9_5000_3c_2/Position/position_5.txt	n
S4_A	49	3	24	1	575.4979	d	593.2553	d	1	1	3	>,<,>	r,l,r	NavClipsFinalRand/GR_st9_5000_3c_0/Position/position_10.txt	t
S4_A	50	3	25	1	600.5253	s	620.3835	s	1	1	1	>,>,>	r,r,r	NavClipsFinalRand/GR_st9_5000_3c_0/Position/position_11.txt	t
S4_A	51	3	1	2	0.03224295	nan	0	null	0	2	99	<,<,>	l,l,r	NavClipsFinalRand/GR_st9_5000_3c_1/Position/position_1.txt	m
S4_A	52	3	2	2	25.04219	d	38.63109	s	0	2	2	<,>,<	l,r,l	NavClipsFinalRand/GR_st9_5000_3c_1/Position/position_2.txt	m
S4_A	53	3	3	2	50.06895	s	56.58841	d	0	1	2	<,<,>	l,l,r	NavClipsFinalRand/GR_st9_5000_3c_0/Position/position_0.txt	t
S4_A	54	3	4	2	75.09562	s	77.56338	s	1	1	1	>,>,<	r,r,l	NavClipsFinalRand/GR_st9_5000_3c_0/Position/position_1.txt	t
S4_A	55	3	5	2	100.1222	d	111.0935	d	1	2	1	<,<,<	l,l,l	NavClipsFinalRand/GR_st9_5000_3c_1/Position/position_3.txt	m
S4_A	56	3	6	2	125.149	d	136.3702	s	0	2	2	<,>,<	l,r,l	NavClipsFinalRand/GR_st9_5000_3c_1/Position/position_4.txt	m
S4_A	57	3	7	2	150.1755	d	169.1333	s	0	2	2	>,>,<	r,r,l	NavClipsFinalRand/GR_st9_5000_3c_1/Position/position_5.txt	m
S4_A	58	3	8	2	175.1855	nan	0	d	0	3	2	>,<,<	l,l,l	NavClipsFinalRand/GR_st9_5000_3c_2/Position/position_0.txt	n
S4_A	59	3	9	2	200.2122	d	205.4481	d	1	2	3	>,<,>	r,l,r	NavClipsFinalRand/GR_st9_5000_3c_1/Position/position_6.txt	m
S4_A	60	3	10	2	225.2392	s	235.8601	s	1	2	2	>,>,>	r,r,r	NavClipsFinalRand/GR_st9_5000_3c_1/Position/position_7.txt	m
S4_A	61	3	11	2	250.2659	d	257.0518	d	1	3	2	>,<,<	r,l,l	NavClipsFinalRand/GR_st9_5000_3c_2/Position/position_1.txt	n
S4_A	62	3	12	2	275.2759	s	288.3813	s	1	3	3	<,>,>	l,r,r	NavClipsFinalRand/GR_st9_5000_3c_2/Position/position_2.txt	n
S4_A	63	3	13	2	300.3024	s	314.1579	s	1	3	3	>,>,>	r,r,r	NavClipsFinalRand/GR_st9_5000_3c_2/Position/position_3.txt	n
S4_A	64	3	14	2	325.3292	s	336.3501	s	1	3	3	>,<,<	r,l,l	NavClipsFinalRand/GR_st9_5000_3c_2/Position/position_4.txt	n
S4_A	65	3	15	2	350.3559	d	359.4758	d	1	1	3	>,<,<	r,l,l	NavClipsFinalRand/GR_st9_5000_3c_0/Position/position_2.txt	t
S4_A	66	3	16	2	375.3652	s	383.1679	s	1	1	1	<,<,>	l,l,r	NavClipsFinalRand/GR_st9_5000_3c_0/Position/position_3.txt	t
S4_A	67	3	17	2	400.3919	d	411.5962	d	1	3	1	>,>,>	r,r,r	NavClipsFinalRand/GR_st9_5000_3c_2/Position/position_5.txt	n
S4_A	68	3	18	2	425.4188	d	429.4537	d	1	1	3	>,>,>	r,r,r	NavClipsFinalRand/GR_st9_5000_3c_0/Position/position_4.txt	t
S4_A	69	3	19	2	450.4454	s	454.9968	s	1	1	1	<,>,<	l,r,l	NavClipsFinalRand/GR_st9_5000_3c_0/Position/position_5.txt	t
S4_A	70	3	20	2	475.4713	s	488.8596	s	1	1	1	<,<,<	l,l,l	NavClipsFinalRand/GR_st9_5000_3c_0/Position/position_6.txt	t
S4_A	71	3	21	2	500.4813	d	509.3846	d	1	3	1	<,>,<	l,r,l	NavClipsFinalRand/GR_st9_5000_3c_2/Position/position_6.txt	n
S4_A	72	3	22	2	525.5081	s	532.6104	s	1	3	3	>,>,<	r,r,l	NavClipsFinalRand/GR_st9_5000_3c_2/Position/position_7.txt	n
S4_A	73	3	23	2	550.5353	d	565.1234	s	0	3	3	>,<,>	r,l,r	NavClipsFinalRand/GR_st9_5000_3c_2/Position/position_8.txt	n
S4_A	74	3	24	2	575.5779	s	583.7473	s	1	3	3	<,<,>	l,l,r	NavClipsFinalRand/GR_st9_5000_3c_2/Position/position_9.txt	n
S4_A	75	3	25	2	600.5717	d	606.6738	d	1	2	3	<,>,<	l,r,l	NavClipsFinalRand/GR_st9_5000_3c_1/Position/position_8.txt	m
S4_A	76	3	1	3	0.03336304	nan	0	null	0	1	99	>,<,<	r,l,l	NavClipsFinalRand/GR_st9_5000_3c_0/Position/position_1.txt	t
S4_A	77	3	2	3	25.05988	s	34.7306	d	0	2	1	<,>,>	l,r,r	NavClipsFinalRand/GR_st9_5000_3c_1/Position/position_0.txt	m
S4_A	78	3	3	3	50.08667	d	69.41087	d	1	1	2	<,>,>	l,r,r	NavClipsFinalRand/GR_st9_5000_3c_0/Position/position_2.txt	t
S4_A	79	3	4	3	75.11365	s	83.53311	d	0	2	1	>,<,>	r,l,r	NavClipsFinalRand/GR_st9_5000_3c_1/Position/position_1.txt	m
S4_A	80	3	5	3	100.1405	d	108.2597	d	1	1	2	>,<,<	r,l,l	NavClipsFinalRand/GR_st9_5000_3c_0/Position/position_3.txt	t
S4_A	81	3	6	3	125.1499	s	140.9059	d	0	3	1	<,>,<	l,l,l	NavClipsFinalRand/GR_st9_5000_3c_2/Position/position_0.txt	n
S4_A	82	3	7	3	150.1765	d	153.6443	s	0	3	3	>,>,>	r,r,r	NavClipsFinalRand/GR_st9_5000_3c_2/Position/position_1.txt	n
S4_A	83	3	8	3	175.1864	d	180.5217	d	1	1	3	>,<,<	r,l,l	NavClipsFinalRand/GR_st9_5000_3c_0/Position/position_4.txt	t
S4_A	84	3	9	3	200.2131	s	210.8505	s	1	1	1	<,<,>	l,l,r	NavClipsFinalRand/GR_st9_5000_3c_0/Position/position_5.txt	t
S4_A	85	3	10	3	225.2397	s	241.4294	s	1	1	1	<,<,<	l,l,l	NavClipsFinalRand/GR_st9_5000_3c_0/Position/position_6.txt	t
S4_A	86	3	11	3	250.2666	s	265.0886	d	0	2	1	<,>,<	l,r,l	NavClipsFinalRand/GR_st9_5000_3c_1/Position/position_2.txt	m
S4_A	87	3	12	3	275.293	d	286.0138	s	0	2	2	>,>,<	r,r,l	NavClipsFinalRand/GR_st9_5000_3c_1/Position/position_3.txt	m
S4_A	88	3	13	3	300.3032	d	306.8723	s	0	2	2	>,>,<	r,r,l	NavClipsFinalRand/GR_st9_5000_3c_1/Position/position_4.txt	m
S4_A	89	3	14	3	325.3297	d	339.5188	d	1	3	2	>,>,<	r,r,l	NavClipsFinalRand/GR_st9_5000_3c_2/Position/position_2.txt	n
S4_A	90	3	15	3	350.3563	d	352.2574	d	1	2	3	<,>,<	l,r,l	NavClipsFinalRand/GR_st9_5000_3c_1/Position/position_5.txt	m
S4_A	91	3	16	3	375.3833	s	389.7387	d	0	3	2	>,<,>	r,l,r	NavClipsFinalRand/GR_st9_5000_3c_2/Position/position_3.txt	n
S4_A	92	3	17	3	400.3934	s	411.4644	s	1	3	3	<,>,<	l,r,l	NavClipsFinalRand/GR_st9_5000_3c_2/Position/position_4.txt	n
S4_A	93	3	18	3	425.4198	d	433.5897	d	1	1	3	>,>,>	r,r,r	NavClipsFinalRand/GR_st9_5000_3c_0/Position/position_7.txt	t
S4_A	94	3	19	3	450.4462	d	462.3012	d	1	2	1	>,<,>	r,l,r	NavClipsFinalRand/GR_st9_5000_3c_1/Position/position_6.txt	m
S4_A	95	3	20	3	475.4734	s	480.2919	s	1	2	2	<,<,<	l,l,l	NavClipsFinalRand/GR_st9_5000_3c_1/Position/position_7.txt	m
S4_A	96	3	21	3	500.5165	d	514.7227	d	1	1	2	>,<,<	r,l,l	NavClipsFinalRand/GR_st9_5000_3c_0/Position/position_8.txt	t
S4_A	97	3	22	3	525.5102	s	537.6818	s	1	1	1	<,<,<	l,l,l	NavClipsFinalRand/GR_st9_5000_3c_0/Position/position_9.txt	t
S4_A	98	3	23	3	550.5359	d	561.3234	d	1	3	1	>,<,<	r,l,l	NavClipsFinalRand/GR_st9_5000_3c_2/Position/position_5.txt	n
S4_A	99	3	24	3	575.5634	d	577.2975	d	1	1	3	<,<,<	l,l,l	NavClipsFinalRand/GR_st9_5000_3c_0/Position/position_10.txt	t
S4_A	100	3	25	3	600.6066	s	610.6099	s	1	1	1	<,>,<	l,r,l	NavClipsFinalRand/GR_st9_5000_3c_0/Position/position_11.txt	t
S5_A	1	4	1	0	0.03342199	nan	0	null	0	3	99	<,<,>	l,l,r	NavClipsFinalCutRand/GR_st9_5000_3c_2/Position/position_1.txt	n
S5_A	2	4	2	0	25.04343	s	35.83731	d	0	2	3	>,>,<	r,r,l	NavClipsFinalCutRand/GR_st9_5000_3c_1/Position/position_0.txt	m
S5_A	3	4	3	0	50.05313	s	64.02542	d	0	3	2	<,<,<	l,l,l	NavClipsFinalCutRand/GR_st9_5000_3c_2/Position/position_2.txt	n
S5_A	4	4	4	0	75.07975	d	79.01467	d	1	1	3	>,<,<	r,l,l	NavClipsFinalCutRand/GR_st9_5000_3c_0/Position/position_0.txt	t
S5_A	5	4	5	0	100.1065	s	113.9621	s	1	1	1	<,<,>	l,l,r	NavClipsFinalCutRand/GR_st9_5000_3c_0/Position/position_1.txt	t
S5_A	6	4	6	0	125.1332	d	134.8925	d	1	3	1	<,<,>	l,l,r	NavClipsFinalCutRand/GR_st9_5000_3c_2/Position/position_3.txt	n
S5_A	7	4	7	0	150.1763	d	164.4153	d	1	1	3	>,>,>	r,r,r	NavClipsFinalCutRand/GR_st9_5000_3c_0/Position/position_2.txt	t
S5_A	8	4	8	0	175.1696	nan	0	s	0	1	1	>,>,>	r,r,r	NavClipsFinalCutRand/GR_st9_5000_3c_0/Position/position_3.txt	t
S5_A	9	4	9	0	200.1961	d	208.4996	d	1	3	1	<,<,>	l,l,r	NavClipsFinalCutRand/GR_st9_5000_3c_2/Position/position_4.txt	n
S5_A	10	4	10	0	225.2229	s	240.9457	s	1	3	3	<,<,<	l,l,l	NavClipsFinalCutRand/GR_st9_5000_3c_2/Position/position_5.txt	n
S5_A	11	4	11	0	250.2326	d	266.3391	s	0	3	3	<,<,>	l,l,r	NavClipsFinalCutRand/GR_st9_5000_3c_2/Position/position_6.txt	n
S5_A	12	4	12	0	275.2593	s	285.897	s	1	3	3	>,<,>	r,l,r	NavClipsFinalCutRand/GR_st9_5000_3c_2/Position/position_7.txt	n
S5_A	13	4	13	0	300.286	d	305.488	d	1	1	3	>,>,>	r,r,r	NavClipsFinalCutRand/GR_st9_5000_3c_0/Position/position_4.txt	t
S5_A	14	4	14	0	325.3133	nan	0	d	0	2	1	>,>,>	l,r,r	NavClipsFinalCutRand/GR_st9_5000_3c_1/Position/position_1.txt	m
S5_A	15	4	15	0	350.3563	d	359.4596	s	0	2	2	<,>,>	l,r,r	NavClipsFinalCutRand/GR_st9_5000_3c_1/Position/position_2.txt	m
S5_A	16	4	16	0	375.3824	s	391.372	s	1	2	2	>,>,>	r,r,r	NavClipsFinalCutRand/GR_st9_5000_3c_1/Position/position_3.txt	m
S5_A	17	4	17	0	400.409	d	411.5967	d	1	1	2	<,>,<	l,r,l	NavClipsFinalCutRand/GR_st9_5000_3c_0/Position/position_5.txt	t
S5_A	18	4	18	0	425.4356	s	431.0044	s	1	1	1	>,<,<	r,l,l	NavClipsFinalCutRand/GR_st9_5000_3c_0/Position/position_6.txt	t
S5_A	19	4	19	0	450.4455	s	462.9503	s	1	1	1	<,<,<	l,l,l	NavClipsFinalCutRand/GR_st9_5000_3c_0/Position/position_7.txt	t
S5_A	20	4	20	0	475.4728	d	477.8064	d	1	3	1	<,<,>	l,l,r	NavClipsFinalCutRand/GR_st9_5000_3c_2/Position/position_8.txt	n
S5_A	21	4	21	0	500.4984	s	511.9203	s	1	3	3	>,<,<	r,l,l	NavClipsFinalCutRand/GR_st9_5000_3c_2/Position/position_9.txt	n
S5_A	22	4	22	0	525.5249	d	542.581	s	0	3	3	>,>,>	r,r,r	NavClipsFinalCutRand/GR_st9_5000_3c_2/Position/position_10.txt	n
S5_A	23	4	23	0	550.534	d	559.9382	d	1	2	3	>,>,<	r,r,l	NavClipsFinalCutRand/GR_st9_5000_3c_1/Position/position_4.txt	m
S5_A	24	4	24	0	575.5608	d	582.2972	d	1	3	2	<,>,>	l,r,r	NavClipsFinalCutRand/GR_st9_5000_3c_2/Position/position_11.txt	n
S5_A	25	4	25	0	600.5871	s	613.0754	d	0	2	3	<,<,<	l,l,l	NavClipsFinalCutRand/GR_st9_5000_3c_1/Position/position_5.txt	m
S5_A	26	4	1	1	0.03347301	nan	0	null	0	1	99	<,>,<	l,r,l	NavClipsFinalCutRand/GR_st9_5000_3c_0/Position/position_8.txt	t
S5_A	27	4	2	1	25.06013	s	39.6161	s	1	1	1	>,>,<	r,r,l	NavClipsFinalCutRand/GR_st9_5000_3c_0/Position/position_9.txt	t
S5_A	28	4	3	1	50.08669	d	59.52382	d	1	2	1	>,>,>	r,r,r	NavClipsFinalCutRand/GR_st9_5000_3c_1/Position/position_6.txt	m
S5_A	29	4	4	1	75.11334	s	92.63695	s	1	2	2	<,>,<	l,r,l	NavClipsFinalCutRand/GR_st9_5000_3c_1/Position/position_7.txt	m
S5_A	30	4	5	1	100.1401	nan	0	s	0	2	2	>,<,>	r,l,r	NavClipsFinalCutRand/GR_st9_5000_3c_1/Position/position_8.txt	m
S5_A	31	4	6	1	125.1668	d	129.302	d	1	3	2	>,<,<	r,l,l	NavClipsFinalCutRand/GR_st9_5000_3c_2/Position/position_12.txt	n
S5_A	32	4	7	1	150.177	s	157.6129	s	1	3	3	>,>,<	r,r,l	NavClipsFinalCutRand/GR_st9_5000_3c_2/Position/position_13.txt	n
S5_A	33	4	8	1	175.2036	s	180.6386	s	1	3	3	>,>,<	r,r,l	NavClipsFinalCutRand/GR_st9_5000_3c_2/Position/position_14.txt	n
S5_A	34	4	9	1	200.2299	d	209.6671	d	1	2	3	>,>,>	r,r,r	NavClipsFinalCutRand/GR_st9_5000_3c_1/Position/position_9.txt	m
S5_A	35	4	10	1	225.2567	d	227.6906	d	1	1	2	<,<,<	l,l,l	NavClipsFinalCutRand/GR_st9_5000_3c_0/Position/position_10.txt	t
S5_A	36	4	11	1	250.2998	s	263.205	s	1	1	1	<,>,>	l,r,r	NavClipsFinalCutRand/GR_st9_5000_3c_0/Position/position_11.txt	t
S5_A	37	4	12	1	275.3266	d	286.6643	d	1	3	1	<,>,>	l,r,r	NavClipsFinalCutRand/GR_st9_5000_3c_2/Position/position_15.txt	n
S5_A	38	4	13	1	300.3532	s	310.0898	s	1	3	3	<,<,<	l,l,l	NavClipsFinalCutRand/GR_st9_5000_3c_2/Position/position_16.txt	n
S5_A	39	4	14	1	325.3795	s	336.7337	d	0	2	3	>,<,<	r,l,l	NavClipsFinalCutRand/GR_st9_5000_3c_1/Position/position_10.txt	m
S5_A	40	4	15	1	350.3893	d	359.1257	d	1	1	2	>,>,>	r,r,r	NavClipsFinalCutRand/GR_st9_5000_3c_0/Position/position_12.txt	t
S5_A	41	4	16	1	375.4165	s	392.2058	d	0	2	1	>,<,>	r,l,r	NavClipsFinalCutRand/GR_st9_5000_3c_1/Position/position_11.txt	m
S5_A	42	4	17	1	400.4427	d	407.7119	d	1	3	2	<,>,>	l,r,r	NavClipsFinalCutRand/GR_st9_5000_3c_2/Position/position_17.txt	n
S5_A	43	4	18	1	425.4691	d	442.8261	d	1	1	3	<,>,>	l,r,r	NavClipsFinalCutRand/GR_st9_5000_3c_0/Position/position_13.txt	t
S5_A	44	4	19	1	450.4793	d	455.8813	d	1	3	1	>,<,<	r,l,l	NavClipsFinalCutRand/GR_st9_5000_3c_2/Position/position_18.txt	n
S5_A	45	4	20	1	475.5063	d	489.4954	s	0	3	3	<,<,>	l,l,r	NavClipsFinalCutRand/GR_st9_5000_3c_2/Position/position_19.txt	n
S5_A	46	4	21	1	500.5333	d	509.2198	d	1	1	3	<,<,>	l,l,r	NavClipsFinalCutRand/GR_st9_5000_3c_0/Position/position_14.txt	t
S5_A	47	4	22	1	525.5602	d	533.6807	s	0	1	1	<,>,<	l,r,l	NavClipsFinalCutRand/GR_st9_5000_3c_0/Position/position_15.txt	t
S5_A	48	4	23	1	550.6043	s	563.8423	s	1	1	1	>,>,<	r,r,l	NavClipsFinalCutRand/GR_st9_5000_3c_0/Position/position_16.txt	t
S5_A	49	4	24	1	575.5972	d	590.6364	s	0	1	1	<,<,<	l,l,l	NavClipsFinalCutRand/GR_st9_5000_3c_0/Position/position_17.txt	t
S5_A	50	4	25	1	600.6243	d	606.3931	d	1	3	1	>,>,>	r,r,r	NavClipsFinalCutRand/GR_st9_5000_3c_2/Position/position_20.txt	n
S5_A	51	4	1	2	0.03333801	nan	0	null	0	1	99	<,>,>	l,r,r	NavClipsFinalCutRand/GR_st9_5000_3c_0/Position/position_18.txt	t
S5_A	52	4	2	2	25.06038	d	30.37898	d	1	2	1	<,>,>	l,r,r	NavClipsFinalCutRand/GR_st9_5000_3c_1/Position/position_12.txt	m
S5_A	53	4	3	2	50.06993	d	65.54286	d	1	1	2	>,>,>	,r,r	NavClipsFinalCutRand/GR_st9_5000_3c_0/Position/position_19.txt	t
S5_A	54	4	4	2	75.09649	s	81.74402	d	0	2	1	>,<,>	r,l,r	NavClipsFinalCutRand/GR_st9_5000_3c_1/Position/position_13.txt	m
S5_A	55	4	5	2	100.1398	d	106.8259	d	1	1	2	<,<,>	l,l,r	NavClipsFinalCutRand/GR_st9_5000_3c_0/Position/position_20.txt	t
S5_A	56	4	6	2	125.15	d	137.8715	d	1	3	1	<,<,<	l,l,l	NavClipsFinalCutRand/GR_st9_5000_3c_2/Position/position_21.txt	n
S5_A	57	4	7	2	150.1596	s	156.7955	s	1	3	3	>,<,>	r,l,r	NavClipsFinalCutRand/GR_st9_5000_3c_2/Position/position_22.txt	n
S5_A	58	4	8	2	175.1862	d	180.5552	d	1	1	3	>,<,>	r,l,r	NavClipsFinalCutRand/GR_st9_5000_3c_0/Position/position_21.txt	t
S5_A	59	4	9	2	200.2127	s	206.9321	s	1	1	1	>,<,<	r,l,l	NavClipsFinalCutRand/GR_st9_5000_3c_0/Position/position_22.txt	t
S5_A	60	4	10	2	225.2396	s	233.8262	s	1	1	1	<,>,>	l,r,r	NavClipsFinalCutRand/GR_st9_5000_3c_0/Position/position_23.txt	t
S5_A	61	4	11	2	250.2825	d	255.8853	d	1	2	1	>,<,>	r,l,r	NavClipsFinalCutRand/GR_st9_5000_3c_1/Position/position_14.txt	m
S5_A	62	4	12	2	275.2758	d	280.1779	s	0	2	2	>,>,<	r,r,l	NavClipsFinalCutRand/GR_st9_5000_3c_1/Position/position_15.txt	m
S5_A	63	4	13	2	300.3025	s	309.2066	s	1	2	2	<,>,<	l,r,l	NavClipsFinalCutRand/GR_st9_5000_3c_1/Position/position_16.txt	m
S5_A	64	4	14	2	325.3295	d	333.5829	d	1	3	2	<,>,<	l,r,l	NavClipsFinalCutRand/GR_st9_5000_3c_2/Position/position_23.txt	n
S5_A	65	4	15	2	350.3558	d	365.412	d	1	2	3	>,>,<	r,r,l	NavClipsFinalCutRand/GR_st9_5000_3c_1/Position/position_17.txt	m
S5_A	66	4	16	2	375.3661	d	379.6854	d	1	3	2	>,<,<	r,l,l	NavClipsFinalCutRand/GR_st9_5000_3c_2/Position/position_24.txt	n
S5_A	67	4	17	2	400.393	d	418.8841	s	0	3	3	>,>,<	r,r,l	NavClipsFinalCutRand/GR_st9_5000_3c_2/Position/position_25.txt	n
S5_A	68	4	18	2	425.4194	d	428.854	d	1	1	3	>,<,>	r,l,r	NavClipsFinalCutRand/GR_st9_5000_3c_0/Position/position_24.txt	t
S5_A	69	4	19	2	450.4292	s	455.8313	d	0	2	1	>,>,>	r,r,r	NavClipsFinalCutRand/GR_st9_5000_3c_1/Position/position_18.txt	m
S5_A	70	4	20	2	475.4556	s	480.4913	s	1	2	2	>,>,<	r,r,l	NavClipsFinalCutRand/GR_st9_5000_3c_1/Position/position_19.txt	m
S5_A	71	4	21	2	500.4825	d	502.85	d	1	1	2	>,>,>	r,r,r	NavClipsFinalCutRand/GR_st9_5000_3c_0/Position/position_25.txt	t
S5_A	72	4	22	2	525.509	s	533.929	s	1	1	1	<,>,<	l,r,l	NavClipsFinalCutRand/GR_st9_5000_3c_0/Position/position_26.txt	t
S5_A	73	4	23	2	550.5193	d	554.6206	d	1	3	1	<,>,<	l,r,l	NavClipsFinalCutRand/GR_st9_5000_3c_2/Position/position_26.txt	n
S5_A	74	4	24	2	575.5457	s	583.9819	d	0	1	3	<,<,>	l,l,r	NavClipsFinalCutRand/GR_st9_5000_3c_0/Position/position_27.txt	t
S5_A	75	4	25	2	600.5715	s	608.4743	s	1	1	1	<,>,>	l,r,r	NavClipsFinalCutRand/GR_st9_5000_3c_0/Position/position_28.txt	t
S5_A	76	4	1	3	0.03334105	nan	0	null	0	2	99	<,>,<	l,r,l	NavClipsFinalCutRand/GR_st9_5000_3c_1/Position/position_20.txt	m
S5_A	77	4	2	3	25.05997	d	38.61585	s	0	2	2	<,<,>	l,l,r	NavClipsFinalCutRand/GR_st9_5000_3c_1/Position/position_21.txt	m
S5_A	78	4	3	3	50.0864	d	57.57302	d	1	1	2	>,<,>	r,l,r	NavClipsFinalCutRand/GR_st9_5000_3c_0/Position/position_29.txt	t
S5_A	79	4	4	3	75.09643	s	77.79767	s	1	1	1	>,>,>	r,r,r	NavClipsFinalCutRand/GR_st9_5000_3c_0/Position/position_30.txt	t
S5_A	80	4	5	3	100.1231	d	109.2433	d	1	2	1	<,<,<	l,l,l	NavClipsFinalCutRand/GR_st9_5000_3c_1/Position/position_22.txt	m
S5_A	81	4	6	3	125.1498	s	141.2727	s	1	2	2	>,<,<	r,l,l	NavClipsFinalCutRand/GR_st9_5000_3c_1/Position/position_23.txt	m
S5_A	82	4	7	3	150.1763	d	155.4953	s	0	2	2	>,<,>	r,l,r	NavClipsFinalCutRand/GR_st9_5000_3c_1/Position/position_24.txt	m
S5_A	83	4	8	3	175.1864	d	182.1226	d	1	3	2	<,>,>	l,r,r	NavClipsFinalCutRand/GR_st9_5000_3c_2/Position/position_27.txt	n
S5_A	84	4	9	3	200.213	d	203.8813	d	1	2	3	>,>,<	r,r,l	NavClipsFinalCutRand/GR_st9_5000_3c_1/Position/position_25.txt	m
S5_A	85	4	10	3	225.2395	s	234.1264	s	1	2	2	>,<,<	r,l,l	NavClipsFinalCutRand/GR_st9_5000_3c_1/Position/position_26.txt	m
S5_A	86	4	11	3	250.283	d	258.9199	d	1	3	2	<,<,>	l,l,r	NavClipsFinalCutRand/GR_st9_5000_3c_2/Position/position_28.txt	n
S5_A	87	4	12	3	275.3099	d	285.2472	s	0	3	3	<,<,<	l,l,l	NavClipsFinalCutRand/GR_st9_5000_3c_2/Position/position_29.txt	n
S5_A	88	4	13	3	300.3365	s	308.8567	s	1	3	3	<,<,>	l,l,r	NavClipsFinalCutRand/GR_st9_5000_3c_2/Position/position_30.txt	n
S5_A	89	4	14	3	325.3631	d	329.1315	s	0	3	3	>,<,>	r,l,r	NavClipsFinalCutRand/GR_st9_5000_3c_2/Position/position_31.txt	n
S5_A	90	4	15	3	350.3899	d	353.0411	d	1	1	3	<,<,>	l,l,r	NavClipsFinalCutRand/GR_st9_5000_3c_0/Position/position_31.txt	t
S5_A	91	4	16	3	375.4002	d	384.0373	s	0	1	1	<,<,<	l,l,l	NavClipsFinalCutRand/GR_st9_5000_3c_0/Position/position_32.txt	t
S5_A	92	4	17	3	400.4269	d	404.8957	d	1	3	1	>,<,>	r,l,r	NavClipsFinalCutRand/GR_st9_5000_3c_2/Position/position_32.txt	n
S5_A	93	4	18	3	425.4534	d	428.855	d	1	1	3	>,>,<	r,r,l	NavClipsFinalCutRand/GR_st9_5000_3c_0/Position/position_33.txt	t
S5_A	94	4	19	3	450.4802	s	456.8993	s	1	1	1	<,<,<	l,l,l	NavClipsFinalCutRand/GR_st9_5000_3c_0/Position/position_34.txt	t
S5_A	95	4	20	3	475.4896	d	478.4243	s	0	1	1	>,<,<	r,l,l	NavClipsFinalCutRand/GR_st9_5000_3c_0/Position/position_35.txt	t
S5_A	96	4	21	3	500.5168	d	502.8847	d	1	3	1	<,>,>	l,r,r	NavClipsFinalCutRand/GR_st9_5000_3c_2/Position/position_33.txt	n
S5_A	97	4	22	3	525.5431	s	531.3784	s	1	3	3	<,<,<	l,l,l	NavClipsFinalCutRand/GR_st9_5000_3c_2/Position/position_34.txt	n
S5_A	98	4	23	3	550.5699	s	553.0878	s	1	3	3	>,>,>	r,r,r	NavClipsFinalCutRand/GR_st9_5000_3c_2/Position/position_35.txt	n
S5_A	99	4	24	3	575.5802	d	578.2148	s	0	3	3	>,>,<	r,r,l	NavClipsFinalCutRand/GR_st9_5000_3c_2/Position/position_36.txt	n
S5_A	100	4	25	3	600.6065	s	615.7297	d	0	2	3	<,>,<	l,r,l	NavClipsFinalCutRand/GR_st9_5000_3c_1/Position/position_27.txt	m
S6_A	1	5	1	0	0.01649195	nan	0	null	0	1	99	<,>,>	l,r,r	NavClipsFinalCutRand/GR_st9_5000_3c_1/Position/position_0.txt	t
S6_A	2	5	2	0	25.10986	s	40.46615	d	0	2	1	<,<,<	l,r,l	NavClipsFinalCutRand/GR_st9_5000_3c_1/Position/position_0.txt	m
S6_A	3	5	3	0	50.1197	d	64.6424	d	1	1	2	<,>,>	l,r,r	NavClipsFinalCutRand/GR_st9_5000_3c_0/Position/position_1.txt	t
S6_A	4	5	4	0	75.14644	s	88.26857	d	0	2	1	<,<,>	l,l,r	NavClipsFinalCutRand/GR_st9_5000_3c_1/Position/position_1.txt	m
S6_A	5	5	5	0	100.1896	s	110.4106	d	0	1	2	<,<,<	l,l,l	NavClipsFinalCutRand/GR_st9_5000_3c_0/Position/position_2.txt	t
S6_A	6	5	6	0	125.2331	d	134.7705	d	1	3	1	>,<,>	r,l,r	NavClipsFinalCutRand/GR_st9_5000_3c_2/Position/position_0.txt	n
S6_A	7	5	7	0	150.2433	s	164.1652	s	1	3	3	>,>,>	r,r,r	NavClipsFinalCutRand/GR_st9_5000_3c_2/Position/position_1.txt	n
S6_A	8	5	8	0	175.2867	s	189.959	d	0	1	3	<,<,<	l,l,l	NavClipsFinalCutRand/GR_st9_5000_3c_0/Position/position_3.txt	t
S6_A	9	5	9	0	200.3467	s	203.4478	s	1	1	1	>,>,<	r,r,l	NavClipsFinalCutRand/GR_st9_5000_3c_0/Position/position_4.txt	t
S6_A	10	5	10	0	225.3898	s	243.0632	s	1	1	1	>,<,<	r,l,l	NavClipsFinalCutRand/GR_st9_5000_3c_0/Position/position_5.txt	t
S6_A	11	5	11	0	250.4163	d	259.7032	d	1	2	1	>,<,<	r,l,l	NavClipsFinalCutRand/GR_st9_5000_3c_1/Position/position_2.txt	m
S6_A	12	5	12	0	275.4594	s	285.3469	s	1	2	2	<,<,<	l,l,l	NavClipsFinalCutRand/GR_st9_5000_3c_1/Position/position_3.txt	m
S6_A	13	5	13	0	300.5193	d	315.9919	s	0	2	2	<,>,>	l,r,r	NavClipsFinalCutRand/GR_st9_5000_3c_1/Position/position_4.txt	m
S6_A	14	5	14	0	325.5626	s	340.4187	d	0	3	2	>,<,<	r,l,l	NavClipsFinalCutRand/GR_st9_5000_3c_2/Position/position_2.txt	n
S6_A	15	5	15	0	350.6058	s	364.378	d	0	2	3	>,>,>	r,r,r	NavClipsFinalCutRand/GR_st9_5000_3c_1/Position/position_5.txt	m
S6_A	16	5	16	0	375.6323	s	381.3177	d	0	3	2	>,>,<	r,r,l	NavClipsFinalCutRand/GR_st9_5000_3c_2/Position/position_3.txt	n
S6_A	17	5	17	0	400.692	s	419.7163	s	1	3	3	>,<,<	r,l,l	NavClipsFinalCutRand/GR_st9_5000_3c_2/Position/position_4.txt	n
S6_A	18	5	18	0	425.7021	d	431.7378	d	1	1	3	>,>,>	r,r,r	NavClipsFinalCutRand/GR_st9_5000_3c_0/Position/position_6.txt	t
S6_A	19	5	19	0	450.7286	d	464.6505	d	1	2	1	>,<,<	r,l,l	NavClipsFinalCutRand/GR_st9_5000_3c_1/Position/position_6.txt	m
S6_A	20	5	20	0	475.7714	s	490.1434	s	1	2	2	>,>,>	r,r,r	NavClipsFinalCutRand/GR_st9_5000_3c_1/Position/position_7.txt	m
S6_A	21	5	21	0	500.7813	d	516.3542	d	1	1	2	>,>,<	r,r,l	NavClipsFinalCutRand/GR_st9_5000_3c_0/Position/position_7.txt	t
S6_A	22	5	22	0	525.8248	s	537.3463	s	1	1	1	>,>,>	r,r,r	NavClipsFinalCutRand/GR_st9_5000_3c_0/Position/position_8.txt	t
S6_A	23	5	23	0	550.8676	d	567.0572	d	1	3	1	<,>,>	l,r,r	NavClipsFinalCutRand/GR_st9_5000_3c_2/Position/position_5.txt	n
S6_A	24	5	24	0	575.9111	d	589.0162	d	1	1	3	>,>,>	r,r,r	NavClipsFinalCutRand/GR_st9_5000_3c_0/Position/position_9.txt	t
S6_A	25	5	25	0	600.9713	s	616.427	s	1	1	1	<,>,>	l,r,r	NavClipsFinalCutRand/GR_st9_5000_3c_0/Position/position_10.txt	t
S6_A	26	5	1	1	0.04994303	nan	0	null	0	1	99	>,>,<	r,r,l	NavClipsFinalCutRand/GR_st9_5000_3c_0/Position/position_11.txt	t
S6_A	27	5	2	1	25.09348	s	43.66806	s	1	1	1	>,>,>	r,r,r	NavClipsFinalCutRand/GR_st9_5000_3c_0/Position/position_12.txt	t
S6_A	28	5	3	1	50.11988	s	65.00971	d	0	2	1	<,>,>	l,r,r	NavClipsFinalCutRand/GR_st9_5000_3c_1/Position/position_8.txt	m
S6_A	29	5	4	1	75.16325	d	90.35246	s	0	2	2	<,<,>	l,l,r	NavClipsFinalCutRand/GR_st9_5000_3c_1/Position/position_9.txt	m
S6_A	30	5	5	1	100.2231	s	113.5783	s	1	2	2	>,>,<	r,r,l	NavClipsFinalCutRand/GR_st9_5000_3c_1/Position/position_10.txt	m
S6_A	31	5	6	1	125.2164	d	133.9697	d	1	3	2	<,<,>	l,l,r	NavClipsFinalCutRand/GR_st9_5000_3c_2/Position/position_6.txt	n
S6_A	32	5	7	1	150.2595	s	158.8294	s	1	3	3	>,>,<	r,r,l	NavClipsFinalCutRand/GR_st9_5000_3c_2/Position/position_7.txt	n
S6_A	33	5	8	1	175.2861	d	191.8759	s	0	3	3	<,<,>	l,l,r	NavClipsFinalCutRand/GR_st9_5000_3c_2/Position/position_8.txt	n
S6_A	34	5	9	1	200.3293	d	216.1691	d	1	2	3	<,<,>	l,l,r	NavClipsFinalCutRand/GR_st9_5000_3c_1/Position/position_11.txt	m
S6_A	35	5	10	1	225.3396	d	243.3297	d	1	1	2	>,>,>	l,r,r	NavClipsFinalCutRand/GR_st9_5000_3c_0/Position/position_13.txt	t
S6_A	36	5	11	1	250.3824	nan	0	s	0	1	1	<,<,>	l,l,r	NavClipsFinalCutRand/GR_st9_5000_3c_0/Position/position_14.txt	t
S6_A	37	5	12	1	275.4256	d	280.4943	d	1	3	1	>,>,<	r,r,l	NavClipsFinalCutRand/GR_st9_5000_3c_2/Position/position_9.txt	n
S6_A	38	5	13	1	300.4525	s	315.6253	s	1	3	3	>,<,>	r,l,r	NavClipsFinalCutRand/GR_st9_5000_3c_2/Position/position_10.txt	n
S6_A	39	5	14	1	325.496	s	339.4682	d	0	2	3	>,>,>	r,r,r	NavClipsFinalCutRand/GR_st9_5000_3c_1/Position/position_12.txt	m
S6_A	40	5	15	1	350.5395	s	370.1805	d	0	1	2	>,<,>	l,l,r	NavClipsFinalCutRand/GR_st9_5000_3c_0/Position/position_15.txt	t
S6_A	41	5	16	1	375.5825	d	387.954	d	1	2	1	>,<,>	r,l,r	NavClipsFinalCutRand/GR_st9_5000_3c_1/Position/position_13.txt	m
S6_A	42	5	17	1	400.5926	d	414.8484	d	1	3	2	>,<,<	r,l,l	NavClipsFinalCutRand/GR_st9_5000_3c_2/Position/position_11.txt	n
S6_A	43	5	18	1	425.6028	d	431.6051	d	1	1	3	>,>,>	r,r,r	NavClipsFinalCutRand/GR_st9_5000_3c_0/Position/position_16.txt	t
S6_A	44	5	19	1	450.6294	d	462.6672	d	1	3	1	<,<,>	l,l,r	NavClipsFinalCutRand/GR_st9_5000_3c_2/Position/position_12.txt	n
S6_A	45	5	20	1	475.6725	d	486.3101	s	0	3	3	>,>,>	r,r,r	NavClipsFinalCutRand/GR_st9_5000_3c_2/Position/position_13.txt	n
S6_A	46	5	21	1	500.7157	s	513.7043	d	0	1	3	>,<,>	r,l,r	NavClipsFinalCutRand/GR_st9_5000_3c_0/Position/position_17.txt	t
S6_A	47	5	22	1	525.7258	s	534.0788	s	1	1	1	<,>,>	l,r,r	NavClipsFinalCutRand/GR_st9_5000_3c_0/Position/position_18.txt	t
S6_A	48	5	23	1	550.7697	s	559.6734	s	1	1	1	<,>,>	l,r,r	NavClipsFinalCutRand/GR_st9_5000_3c_0/Position/position_19.txt	t
S6_A	49	5	24	1	575.8131	s	590.6356	s	1	1	1	<,<,<	l,l,l	NavClipsFinalCutRand/GR_st9_5000_3c_0/Position/position_20.txt	t
S6_A	50	5	25	1	600.8392	d	607.5419	d	1	3	1	>,>,>	r,r,r	NavClipsFinalCutRand/GR_st9_5000_3c_2/Position/position_14.txt	n
S6_A	51	5	1	2	0.05009401	nan	0	null	0	2	99	<,>,<	l,l,l	NavClipsFinalCutRand/GR_st9_5000_3c_1/Position/position_14.txt	m
S6_A	52	5	2	2	25.09335	s	29.04546	s	1	2	2	<,>,>	l,r,r	NavClipsFinalCutRand/GR_st9_5000_3c_1/Position/position_15.txt	m
S6_A	53	5	3	2	50.13664	d	62.108	d	1	1	2	>,>,<	r,r,l	NavClipsFinalCutRand/GR_st9_5000_3c_0/Position/position_21.txt	t
S6_A	54	5	4	2	75.16315	s	85.45074	s	1	1	1	<,>,<	l,r,r	NavClipsFinalCutRand/GR_st9_5000_3c_0/Position/position_22.txt	t
S6_A	55	5	5	2	100.173	s	112.6949	d	0	2	1	>,>,>	r,r,r	NavClipsFinalCutRand/GR_st9_5000_3c_1/Position/position_16.txt	m
S6_A	56	5	6	2	125.1663	d	139.7557	s	0	2	2	<,>,>	l,r,r	NavClipsFinalCutRand/GR_st9_5000_3c_1/Position/position_17.txt	m
S6_A	57	5	7	2	150.2098	s	159.0801	s	1	2	2	<,<,<	l,l,l	NavClipsFinalCutRand/GR_st9_5000_3c_1/Position/position_18.txt	m
S6_A	58	5	8	2	175.2531	d	181.8227	d	1	3	2	>,>,<	r,r,l	NavClipsFinalCutRand/GR_st9_5000_3c_2/Position/position_15.txt	n
S6_A	59	5	9	2	200.263	s	216.5871	d	0	2	3	<,>,>	l,r,r	NavClipsFinalCutRand/GR_st9_5000_3c_1/Position/position_19.txt	m
S6_A	60	5	10	2	225.2897	s	229.8417	s	1	2	2	>,<,<	r,l,l	NavClipsFinalCutRand/GR_st9_5000_3c_1/Position/position_20.txt	m
S6_A	61	5	11	2	250.3332	s	260.4537	d	0	3	2	<,>,<	l,r,l	NavClipsFinalCutRand/GR_st9_5000_3c_2/Position/position_16.txt	n
S6_A	62	5	12	2	275.3763	s	287.1977	s	1	3	3	<,<,>	l,l,r	NavClipsFinalCutRand/GR_st9_5000_3c_2/Position/position_17.txt	n
S6_A	63	5	13	2	300.3863	d	313.0417	s	0	3	3	>,<,>	l,l,r	NavClipsFinalCutRand/GR_st9_5000_3c_2/Position/position_18.txt	n
S6_A	64	5	14	2	325.4298	s	338.5016	s	1	3	3	<,>,>	l,r,r	NavClipsFinalCutRand/GR_st9_5000_3c_2/Position/position_19.txt	n
S6_A	65	5	15	2	350.457	d	352.8911	d	1	1	3	<,<,<	l,l,l	NavClipsFinalCutRand/GR_st9_5000_3c_0/Position/position_23.txt	t
S6_A	66	5	16	2	375.4999	s	387.238	s	1	1	1	<,<,<	l,l,l	NavClipsFinalCutRand/GR_st9_5000_3c_0/Position/position_24.txt	t
S6_A	67	5	17	2	400.5099	d	407.5628	d	1	3	1	>,>,<	r,r,l	NavClipsFinalCutRand/GR_st9_5000_3c_2/Position/position_20.txt	n
S6_A	68	5	18	2	425.5532	s	438.4748	d	0	1	3	<,<,>	l,l,r	NavClipsFinalCutRand/GR_st9_5000_3c_0/Position/position_25.txt	t
S6_A	69	5	19	2	450.5964	s	460.0667	s	1	1	1	>,<,>	r,l,r	NavClipsFinalCutRand/GR_st9_5000_3c_0/Position/position_26.txt	t
S6_A	70	5	20	2	475.5895	s	494.4136	s	1	1	1	>,>,>	r,r,r	NavClipsFinalCutRand/GR_st9_5000_3c_0/Position/position_27.txt	t
S6_A	71	5	21	2	500.6331	d	508.5023	d	1	3	1	<,<,<	l,l,l	NavClipsFinalCutRand/GR_st9_5000_3c_2/Position/position_21.txt	n
S6_A	72	5	22	2	525.6761	s	540.9651	s	1	3	3	>,>,<	r,r,l	NavClipsFinalCutRand/GR_st9_5000_3c_2/Position/position_22.txt	n
S6_A	73	5	23	2	550.7192	s	560.5391	s	1	3	3	>,<,>	r,l,r	NavClipsFinalCutRand/GR_st9_5000_3c_2/Position/position_23.txt	n
S6_A	74	5	24	2	575.7458	s	583.8159	s	1	3	3	<,>,>	l,r,r	NavClipsFinalCutRand/GR_st9_5000_3c_2/Position/position_24.txt	n
S6_A	75	5	25	2	600.7557	s	607.5085	d	0	2	3	>,<,>	r,r,r	NavClipsFinalCutRand/GR_st9_5000_3c_1/Position/position_21.txt	m
S6_A	76	5	1	3	0.049936	nan	0	null	0	2	99	>,>,<	r,r,l	NavClipsFinalCutRand/GR_st9_5000_3c_1/Position/position_1.txt	m
S6_A	77	5	2	3	25.09321	s	32.39613	s	1	2	2	<,<,>	l,l,r	NavClipsFinalCutRand/GR_st9_5000_3c_1/Position/position_2.txt	m
S6_A	78	5	3	3	50.13663	d	61.35772	d	1	1	2	<,<,>	l,l,r	NavClipsFinalCutRand/GR_st9_5000_3c_0/Position/position_0.txt	t
S6_A	79	5	4	3	75.16319	s	88.51839	s	1	1	1	<,>,<	l,r,l	NavClipsFinalCutRand/GR_st9_5000_3c_0/Position/position_1.txt	t
S6_A	80	5	5	3	100.1731	s	110.3437	d	0	2	1	>,<,<	r,l,l	NavClipsFinalCutRand/GR_st9_5000_3c_1/Position/position_3.txt	m
S6_A	81	5	6	3	125.2164	nan	0	s	0	2	2	<,<,<	r,l,l	NavClipsFinalCutRand/GR_st9_5000_3c_1/Position/position_4.txt	m
S6_A	82	5	7	3	150.2596	s	158.2129	s	1	2	2	<,>,<	l,r,l	NavClipsFinalCutRand/GR_st9_5000_3c_1/Position/position_5.txt	m
S6_A	83	5	8	3	175.3195	s	193.5933	d	0	3	2	<,>,>	l,l,r	NavClipsFinalCutRand/GR_st9_5000_3c_2/Position/position_0.txt	n
S6_A	84	5	9	3	200.3303	s	208.6496	d	0	2	3	<,>,<	l,r,l	NavClipsFinalCutRand/GR_st9_5000_3c_1/Position/position_6.txt	m
S6_A	85	5	10	3	225.3562	s	230.8588	s	1	2	2	<,<,<	l,l,l	NavClipsFinalCutRand/GR_st9_5000_3c_1/Position/position_7.txt	m
S6_A	86	5	11	3	250.3829	d	261.3206	d	1	3	2	>,<,<	r,r,l	NavClipsFinalCutRand/GR_st9_5000_3c_2/Position/position_1.txt	n
S6_A	87	5	12	3	275.4263	d	288.3981	s	0	3	3	<,<,<	l,l,l	NavClipsFinalCutRand/GR_st9_5000_3c_2/Position/position_2.txt	n
S6_A	88	5	13	3	300.4365	s	308.0896	s	1	3	3	>,>,<	r,r,l	NavClipsFinalCutRand/GR_st9_5000_3c_2/Position/position_3.txt	n
S6_A	89	5	14	3	325.4631	s	331.0656	s	1	3	3	<,<,<	l,l,l	NavClipsFinalCutRand/GR_st9_5000_3c_2/Position/position_4.txt	n
S6_A	90	5	15	3	350.5065	d	358.493	d	1	1	3	<,<,<	l,l,l	NavClipsFinalCutRand/GR_st9_5000_3c_0/Position/position_2.txt	t
S6_A	91	5	16	3	375.4994	d	391.039	s	0	1	1	>,>,>	r,r,r	NavClipsFinalCutRand/GR_st9_5000_3c_0/Position/position_3.txt	t
S6_A	92	5	17	3	400.5092	d	418.0329	d	1	3	1	<,>,<	l,l,l	NavClipsFinalCutRand/GR_st9_5000_3c_2/Position/position_5.txt	n
S6_A	93	5	18	3	425.5522	d	428.07	d	1	1	3	>,>,>	r,r,r	NavClipsFinalCutRand/GR_st9_5000_3c_0/Position/position_4.txt	t
S6_A	94	5	19	3	450.6132	s	461.367	s	1	1	1	<,<,>	l,l,r	NavClipsFinalCutRand/GR_st9_5000_3c_0/Position/position_5.txt	t
S6_A	95	5	20	3	475.6394	nan	0	s	0	1	1	<,<,>	l,l,r	NavClipsFinalCutRand/GR_st9_5000_3c_0/Position/position_6.txt	t
S6_A	96	5	21	3	500.6826	s	513.8546	d	0	3	1	<,<,>	l,l,r	NavClipsFinalCutRand/GR_st9_5000_3c_2/Position/position_6.txt	n
S6_A	97	5	22	3	525.7256	s	545.4178	s	1	3	3	>,<,>	l,l,r	NavClipsFinalCutRand/GR_st9_5000_3c_2/Position/position_7.txt	n
S6_A	98	5	23	3	550.7689	s	554.6205	s	1	3	3	>,<,>	r,l,r	NavClipsFinalCutRand/GR_st9_5000_3c_2/Position/position_8.txt	n
S6_A	99	5	24	3	575.8114	s	585.3817	s	1	3	3	<,>,<	l,r,l	NavClipsFinalCutRand/GR_st9_5000_3c_2/Position/position_9.txt	n
S6_A	100	5	25	3	600.8212	d	605.5237	d	1	2	3	<,>,>	l,r,r	NavClipsFinalCutRand/GR_st9_5000_3c_1/Position/position_8.txt	m
S7_A	1	6	1	0	0.01674896	nan	0	null	0	3	99	>,>,>	r,r,r	NavClipsFinalRand/GR_st9_5000_3c_2/Position/position_1.txt	n
S7_A	2	6	2	0	25.0595	d	32.66227	d	1	2	3	>,>,>	r,r,r	NavClipsFinalRand/GR_st9_5000_3c_1/Position/position_0.txt	m
S7_A	3	6	3	0	50.05276	d	69.877	d	1	3	2	<,>,<	l,r,l	NavClipsFinalRand/GR_st9_5000_3c_2/Position/position_2.txt	n
S7_A	4	6	4	0	75.07935	d	89.16836	d	1	1	3	>,<,>	r,l,r	NavClipsFinalRand/GR_st9_5000_3c_0/Position/position_0.txt	t
S7_A	5	6	5	0	100.1061	s	112.7941	s	1	1	1	>,>,>	r,r,r	NavClipsFinalRand/GR_st9_5000_3c_0/Position/position_1.txt	t
S7_A	6	6	6	0	125.116	d	129.2842	d	1	3	1	>,>,<	r,r,l	NavClipsFinalRand/GR_st9_5000_3c_2/Position/position_3.txt	n
S7_A	7	6	7	0	150.1426	d	163.7643	d	1	1	3	>,<,>	r,r,r	NavClipsFinalRand/GR_st9_5000_3c_0/Position/position_2.txt	t
S7_A	8	6	8	0	175.1691	s	182.1719	s	1	1	1	<,<,<	l,l,l	NavClipsFinalRand/GR_st9_5000_3c_0/Position/position_3.txt	t
S7_A	9	6	9	0	200.1955	d	205.8807	d	1	3	1	>,>,<	r,r,l	NavClipsFinalRand/GR_st9_5000_3c_2/Position/position_4.txt	n
S7_A	10	6	10	0	225.2221	d	236.2765	s	0	3	3	<,>,<	l,r,l	NavClipsFinalRand/GR_st9_5000_3c_2/Position/position_5.txt	n
S7_A	11	6	11	0	250.2323	s	265.3712	s	1	3	3	<,>,<	l,r,l	NavClipsFinalRand/GR_st9_5000_3c_2/Position/position_6.txt	n
S7_A	12	6	12	0	275.2587	s	282.0948	s	1	3	3	<,>,>	l,r,r	NavClipsFinalRand/GR_st9_5000_3c_2/Position/position_7.txt	n
S7_A	13	6	13	0	300.2852	d	319.8096	d	1	1	3	<,>,<	l,r,l	NavClipsFinalRand/GR_st9_5000_3c_0/Position/position_4.txt	t
S7_A	14	6	14	0	325.3118	d	331.3975	d	1	2	1	>,<,>	r,l,r	NavClipsFinalRand/GR_st9_5000_3c_1/Position/position_1.txt	m
S7_A	15	6	15	0	350.3218	s	354.4901	s	1	2	2	<,<,>	l,l,r	NavClipsFinalRand/GR_st9_5000_3c_1/Position/position_2.txt	m
S7_A	16	6	16	0	375.3486	s	383.6351	s	1	2	2	>,>,>	r,l,r	NavClipsFinalRand/GR_st9_5000_3c_1/Position/position_3.txt	m
S7_A	17	6	17	0	400.3753	d	404.8436	d	1	1	2	>,>,>	r,r,r	NavClipsFinalRand/GR_st9_5000_3c_0/Position/position_5.txt	t
S7_A	18	6	18	0	425.4013	s	428.3195	s	1	1	1	>,>,>	r,r,r	NavClipsFinalRand/GR_st9_5000_3c_0/Position/position_6.txt	t
S7_A	19	6	19	0	450.4117	d	459.9819	s	0	1	1	>,<,<	r,l,r	NavClipsFinalRand/GR_st9_5000_3c_0/Position/position_7.txt	t
S7_A	20	6	20	0	475.4382	d	487.3596	d	1	3	1	<,>,<	l,r,l	NavClipsFinalRand/GR_st9_5000_3c_2/Position/position_8.txt	n
S7_A	21	6	21	0	500.4646	s	508.5178	s	1	3	3	<,<,>	l,r,r	NavClipsFinalRand/GR_st9_5000_3c_2/Position/position_9.txt	n
S7_A	22	6	22	0	525.4914	s	537.0131	s	1	3	3	<,<,>	l,r,r	NavClipsFinalRand/GR_st9_5000_3c_2/Position/position_10.txt	n
S7_A	23	6	23	0	550.502	d	560.506	d	1	2	3	>,>,<	r,r,l	NavClipsFinalRand/GR_st9_5000_3c_1/Position/position_4.txt	m
S7_A	24	6	24	0	575.5289	s	581.465	d	0	3	2	>,>,<	r,r,r	NavClipsFinalRand/GR_st9_5000_3c_2/Position/position_11.txt	n
S7_A	25	6	25	0	600.5564	d	607.9756	d	1	2	3	<,>,>	l,r,r	NavClipsFinalRand/GR_st9_5000_3c_1/Position/position_5.txt	m
S7_A	26	6	1	1	0.03323197	nan	0	null	0	1	99	>,<,>	r,l,r	NavClipsFinalRand/GR_st9_5000_3c_0/Position/position_1.txt	t
S7_A	27	6	2	1	25.05995	s	32.46276	d	0	2	1	>,>,>	r,r,r	NavClipsFinalRand/GR_st9_5000_3c_1/Position/position_0.txt	m
S7_A	28	6	3	1	50.08648	d	64.07554	d	1	1	2	<,>,>	l,r,l	NavClipsFinalRand/GR_st9_5000_3c_0/Position/position_2.txt	t
S7_A	29	6	4	1	75.11303	d	82.83285	d	1	2	1	<,>,<	l,r,l	NavClipsFinalRand/GR_st9_5000_3c_1/Position/position_1.txt	m
S7_A	30	6	5	1	100.123	s	109.9269	d	0	1	2	<,>,>	l,r,r	NavClipsFinalRand/GR_st9_5000_3c_0/Position/position_3.txt	t
S7_A	31	6	6	1	125.1497	d	133.1862	d	1	3	1	>,<,<	r,l,l	NavClipsFinalRand/GR_st9_5000_3c_2/Position/position_0.txt	n
S7_A	32	6	7	1	150.1761	s	159.5799	s	1	3	3	>,<,<	r,l,l	NavClipsFinalRand/GR_st9_5000_3c_2/Position/position_1.txt	n
S7_A	33	6	8	1	175.2029	d	193.8603	d	1	1	3	<,>,<	l,r,l	NavClipsFinalRand/GR_st9_5000_3c_0/Position/position_4.txt	t
S7_A	34	6	9	1	200.2296	s	204.7484	s	1	1	1	<,>,>	l,r,r	NavClipsFinalRand/GR_st9_5000_3c_0/Position/position_5.txt	t
S7_A	35	6	10	1	225.2395	s	233.426	s	1	1	1	>,>,>	r,r,r	NavClipsFinalRand/GR_st9_5000_3c_0/Position/position_6.txt	t
S7_A	36	6	11	1	250.2662	d	262.3544	d	1	2	1	<,>,<	l,r,l	NavClipsFinalRand/GR_st9_5000_3c_1/Position/position_2.txt	m
S7_A	37	6	12	1	275.2927	s	289.6483	s	1	2	2	<,>,<	l,r,l	NavClipsFinalRand/GR_st9_5000_3c_1/Position/position_3.txt	m
S7_A	38	6	13	1	300.3193	s	308.4388	s	1	2	2	<,>,>	l,r,r	NavClipsFinalRand/GR_st9_5000_3c_1/Position/position_4.txt	m
S7_A	39	6	14	1	325.3289	d	328.2967	d	1	3	2	<,>,>	l,r,r	NavClipsFinalRand/GR_st9_5000_3c_2/Position/position_2.txt	n
S7_A	40	6	15	1	350.3559	d	353.6573	d	1	2	3	<,>,>	l,r,r	NavClipsFinalRand/GR_st9_5000_3c_1/Position/position_5.txt	m
S7_A	41	6	16	1	375.3828	d	378.6843	d	1	3	2	<,>,>	l,r,r	NavClipsFinalRand/GR_st9_5000_3c_2/Position/position_3.txt	n
S7_A	42	6	17	1	400.4095	s	411.0972	s	1	3	3	<,>,<	l,r,l	NavClipsFinalRand/GR_st9_5000_3c_2/Position/position_4.txt	n
S7_A	43	6	18	1	425.4197	d	442.0932	d	1	1	3	<,>,<	l,r,l	NavClipsFinalRand/GR_st9_5000_3c_0/Position/position_7.txt	t
S7_A	44	6	19	1	450.446	d	453.1139	d	1	2	1	>,>,>	r,r,r	NavClipsFinalRand/GR_st9_5000_3c_1/Position/position_6.txt	m
S7_A	45	6	20	1	475.4723	s	476.8066	s	1	2	2	<,<,<	l,r,l	NavClipsFinalRand/GR_st9_5000_3c_1/Position/position_7.txt	m
S7_A	46	6	21	1	500.4825	d	512.0035	d	1	1	2	<,>,<	l,r,l	NavClipsFinalRand/GR_st9_5000_3c_0/Position/position_8.txt	t
S7_A	47	6	22	1	525.4925	s	532.1621	s	1	1	1	<,<,>	l,l,r	NavClipsFinalRand/GR_st9_5000_3c_0/Position/position_9.txt	t
S7_A	48	6	23	1	550.5194	d	553.821	d	1	3	1	>,<,>	r,l,r	NavClipsFinalRand/GR_st9_5000_3c_2/Position/position_5.txt	n
S7_A	49	6	24	1	575.5461	d	580.8151	d	1	1	3	>,<,<	r,l,r	NavClipsFinalRand/GR_st9_5000_3c_0/Position/position_10.txt	t
S7_A	50	6	25	1	600.5729	s	607.5259	s	1	1	1	>,<,<	r,l,l	NavClipsFinalRand/GR_st9_5000_3c_0/Position/position_11.txt	t
S7_A	51	6	1	2	0.01654601	nan	0	null	0	2	99	<,<,>	l,l,r	NavClipsFinalRand/GR_st9_5000_3c_1/Position/position_1.txt	m
S7_A	52	6	2	2	25.04329	s	27.94442	s	1	2	2	>,>,<	r,r,l	NavClipsFinalRand/GR_st9_5000_3c_1/Position/position_2.txt	m
S7_A	53	6	3	2	50.06982	d	57.72298	d	1	1	2	<,<,>	l,l,r	NavClipsFinalRand/GR_st9_5000_3c_0/Position/position_0.txt	t
S7_A	54	6	4	2	75.09628	s	78.71473	s	1	1	1	>,>,>	r,r,r	NavClipsFinalRand/GR_st9_5000_3c_0/Position/position_1.txt	t
S7_A	55	6	5	2	100.1063	d	103.3079	d	1	2	1	<,<,<	l,l,l	NavClipsFinalRand/GR_st9_5000_3c_1/Position/position_3.txt	m
S7_A	56	6	6	2	125.133	s	127.4676	s	1	2	2	>,>,>	r,r,r	NavClipsFinalRand/GR_st9_5000_3c_1/Position/position_4.txt	m
S7_A	57	6	7	2	150.1597	s	153.2945	s	1	2	2	>,>,>	r,r,r	NavClipsFinalRand/GR_st9_5000_3c_1/Position/position_5.txt	m
S7_A	58	6	8	2	175.1864	d	177.2707	d	1	3	2	<,<,<	l,l,l	NavClipsFinalRand/GR_st9_5000_3c_2/Position/position_0.txt	n
S7_A	59	6	9	2	200.1963	d	206.6991	d	1	2	3	>,>,>	r,r,r	NavClipsFinalRand/GR_st9_5000_3c_1/Position/position_6.txt	m
S7_A	60	6	10	2	225.223	s	226.3904	s	1	2	2	>,>,>	r,r,r	NavClipsFinalRand/GR_st9_5000_3c_1/Position/position_7.txt	m
S7_A	61	6	11	2	250.2495	d	269.3409	d	1	3	2	<,>,<	l,r,l	NavClipsFinalRand/GR_st9_5000_3c_2/Position/position_1.txt	n
S7_A	62	6	12	2	275.2764	s	277.8943	s	1	3	3	>,>,<	r,r,l	NavClipsFinalRand/GR_st9_5000_3c_2/Position/position_2.txt	n
S7_A	63	6	13	2	300.2866	s	312.2247	s	1	3	3	>,<,<	r,l,l	NavClipsFinalRand/GR_st9_5000_3c_2/Position/position_3.txt	n
S7_A	64	6	14	2	325.3136	s	329.0814	s	1	3	3	<,>,>	l,r,r	NavClipsFinalRand/GR_st9_5000_3c_2/Position/position_4.txt	n
S7_A	65	6	15	2	350.3404	d	353.875	d	1	1	3	>,>,>	r,r	NavClipsFinalRand/GR_st9_5000_3c_0/Position/position_2.txt	t
S7_A	66	6	16	2	375.3668	s	384.0199	s	1	1	1	<,<,>	l,l,r	NavClipsFinalRand/GR_st9_5000_3c_0/Position/position_3.txt	t
S7_A	67	6	17	2	400.3769	d	402.4778	d	1	3	1	>,>,>	r,r,r	NavClipsFinalRand/GR_st9_5000_3c_2/Position/position_5.txt	n
S7_A	68	6	18	2	425.4038	d	429.8055	d	1	1	3	<,<,<	l,l,l	NavClipsFinalRand/GR_st9_5000_3c_0/Position/position_4.txt	t
S7_A	69	6	19	2	450.414	d	453.6485	s	0	1	1	>,<,>	r,l,r	NavClipsFinalRand/GR_st9_5000_3c_0/Position/position_5.txt	t
S7_A	70	6	20	2	475.4404	s	478.0246	s	1	1	1	>,<,<	r,l,r	NavClipsFinalRand/GR_st9_5000_3c_0/Position/position_6.txt	t
S7_A	71	6	21	2	500.4503	d	512.9553	d	1	3	1	>,>,>	r,r,r	NavClipsFinalRand/GR_st9_5000_3c_2/Position/position_6.txt	n
S7_A	72	6	22	2	525.4771	d	527.8776	s	0	3	3	>,>,<	r,r,l	NavClipsFinalRand/GR_st9_5000_3c_2/Position/position_7.txt	n
S7_A	73	6	23	2	550.5033	s	552.2701	s	1	3	3	<,<,>	l,l,r	NavClipsFinalRand/GR_st9_5000_3c_2/Position/position_8.txt	n
S7_A	74	6	24	2	575.5294	s	583.1825	s	1	3	3	>,<,>	r,l,r	NavClipsFinalRand/GR_st9_5000_3c_2/Position/position_9.txt	n
S7_A	75	6	25	2	600.5399	d	608.5764	d	1	2	3	>,>,>	l,r,r	NavClipsFinalRand/GR_st9_5000_3c_1/Position/position_8.txt	m
S7_A	76	6	1	3	0.01568097	nan	0	null	0	1	99	>,<,>	r,l,r	NavClipsFinalRand/GR_st9_5000_3c_0/Position/position_1.txt	t
S7_A	77	6	2	3	25.04225	d	32.02842	d	1	2	1	<,<,>	l,l,r	NavClipsFinalRand/GR_st9_5000_3c_1/Position/position_0.txt	m
S7_A	78	6	3	3	50.05294	d	63.75769	d	1	1	2	<,>,>	l,r,r	NavClipsFinalRand/GR_st9_5000_3c_0/Position/position_2.txt	t
S7_A	79	6	4	3	75.0789	d	85.65003	d	1	2	1	>,<,>	r,l,r	NavClipsFinalRand/GR_st9_5000_3c_1/Position/position_1.txt	m
S7_A	80	6	5	3	100.0888	d	108.5758	d	1	1	2	<,>,<	l,r,l	NavClipsFinalRand/GR_st9_5000_3c_0/Position/position_3.txt	t
S7_A	81	6	6	3	125.0987	d	127.3167	d	1	3	1	>,<,>	r,l,r	NavClipsFinalRand/GR_st9_5000_3c_2/Position/position_0.txt	n
S7_A	82	6	7	3	150.1086	s	154.3438	s	1	3	3	>,<,>	r,l,r	NavClipsFinalRand/GR_st9_5000_3c_2/Position/position_1.txt	n
S7_A	83	6	8	3	175.1361	d	179.5538	d	1	1	3	<,>,<	l,r,l	NavClipsFinalRand/GR_st9_5000_3c_0/Position/position_4.txt	t
S7_A	84	6	9	3	200.1451	d	204.2803	s	0	1	1	>,>,<	r,r,l	NavClipsFinalRand/GR_st9_5000_3c_0/Position/position_5.txt	t
S7_A	85	6	10	3	225.1716	s	240.8611	s	1	1	1	>,<,>	r,l,r	NavClipsFinalRand/GR_st9_5000_3c_0/Position/position_6.txt	t
S7_A	86	6	11	3	250.1981	d	253.716	d	1	2	1	>,>,<	r,r,l	NavClipsFinalRand/GR_st9_5000_3c_1/Position/position_2.txt	m
S7_A	87	6	12	3	275.2079	s	282.5776	s	1	2	2	<,<,>	l,r,r	NavClipsFinalRand/GR_st9_5000_3c_1/Position/position_3.txt	m
S7_A	88	6	13	3	300.2346	s	307.5711	s	1	2	2	>,>,>	l,l,r	NavClipsFinalRand/GR_st9_5000_3c_1/Position/position_4.txt	m
S7_A	89	6	14	3	325.2615	d	327.329	d	1	3	2	>,>,<	r,r,l	NavClipsFinalRand/GR_st9_5000_3c_2/Position/position_2.txt	n
S7_A	90	6	15	3	350.2882	d	361.9427	d	1	2	3	>,<,<	r,l,l	NavClipsFinalRand/GR_st9_5000_3c_1/Position/position_5.txt	m
S7_A	91	6	16	3	375.2983	s	379.5332	d	0	3	2	<,>,>	l,r,r	NavClipsFinalRand/GR_st9_5000_3c_2/Position/position_3.txt	n
S7_A	92	6	17	3	400.3248	s	403.4259	s	1	3	3	>,<,>	r,l,r	NavClipsFinalRand/GR_st9_5000_3c_2/Position/position_4.txt	n
S7_A	93	6	18	3	425.3517	d	431.804	d	1	1	3	<,>,>	l,r,r	NavClipsFinalRand/GR_st9_5000_3c_0/Position/position_7.txt	t
S7_A	94	6	19	3	450.3781	d	457.7642	d	1	2	1	>,<,<	r,l,l	NavClipsFinalRand/GR_st9_5000_3c_1/Position/position_6.txt	m
S7_A	95	6	20	3	475.3886	s	485.5592	s	1	2	2	<,<,<	l,l,l	NavClipsFinalRand/GR_st9_5000_3c_1/Position/position_7.txt	m
S7_A	96	6	21	3	500.4153	d	511.7865	d	1	1	2	>,>,<	r,r,l	NavClipsFinalRand/GR_st9_5000_3c_0/Position/position_8.txt	t
S7_A	97	6	22	3	525.4421	s	535.0289	s	1	1	1	<,<,<	l,l,l	NavClipsFinalRand/GR_st9_5000_3c_0/Position/position_9.txt	t
S7_A	98	6	23	3	550.4688	d	553.8864	d	1	3	1	<,<,>	l,l,r	NavClipsFinalRand/GR_st9_5000_3c_2/Position/position_5.txt	n
S7_A	99	6	24	3	575.4783	d	578.2792	d	1	1	3	>,>,<	r,r,l	NavClipsFinalRand/GR_st9_5000_3c_0/Position/position_10.txt	t
S7_A	100	6	25	3	600.5052	s	607.0413	s	1	1	1	>,>,>	r,r,r	NavClipsFinalRand/GR_st9_5000_3c_0/Position/position_11.txt	t
S8_B	1	7	1	0	0.01670104	nan	0	null	0	2	99	<,<,>	l,l,r	NavClipsFinalCutRand/GR_st9_5000_3c_1/Position/position_1.txt	m
S8_B	2	7	2	0	25.0433	s	43.26717	s	1	2	2	>,>,<	r,r,l	NavClipsFinalCutRand/GR_st9_5000_3c_1/Position/position_1.txt	m
S8_B	3	7	3	0	50.0866	d	65.49261	d	1	1	2	>,<,>	r,r,r	NavClipsFinalCutRand/GR_st9_5000_3c_0/Position/position_0.txt	n
S8_B	4	7	4	0	75.07989	d	87.98488	s	0	1	1	>,>,<	r,r,l	NavClipsFinalCutRand/GR_st9_5000_3c_0/Position/position_1.txt	n
S8_B	5	7	5	0	100.1065	s	109.1767	d	0	2	1	>,>,<	r,r,l	NavClipsFinalCutRand/GR_st9_5000_3c_1/Position/position_2.txt	m
S8_B	6	7	6	0	125.1336	s	138.9889	s	1	2	2	>,<,>	r,l,r	NavClipsFinalCutRand/GR_st9_5000_3c_1/Position/position_3.txt	m
S8_B	7	7	7	0	150.1599	s	165.2161	s	1	2	2	>,>,>	r,r,r	NavClipsFinalCutRand/GR_st9_5000_3c_1/Position/position_4.txt	m
S8_B	8	7	8	0	175.1699	nan	0	d	0	3	2	<,>,>	l,l,r	NavClipsFinalCutRand/GR_st9_5000_3c_2/Position/position_0.txt	t
S8_B	9	7	9	0	200.1967	s	215.2529	d	0	2	3	>,<,>	r,l,r	NavClipsFinalCutRand/GR_st9_5000_3c_1/Position/position_5.txt	m
S8_B	10	7	10	0	225.2234	s	237.2113	s	1	2	2	>,>,<	r,r,l	NavClipsFinalCutRand/GR_st9_5000_3c_1/Position/position_6.txt	m
S8_B	11	7	11	0	250.233	d	268.0737	d	1	3	2	<,<,<	l,l,l	NavClipsFinalCutRand/GR_st9_5000_3c_2/Position/position_1.txt	t
S8_B	12	7	12	0	275.2595	d	287.9314	s	0	3	3	>,>,<	r,r,l	NavClipsFinalCutRand/GR_st9_5000_3c_2/Position/position_2.txt	t
S8_B	13	7	13	0	300.2863	s	313.7086	s	1	3	3	<,>,>	l,r,l	NavClipsFinalCutRand/GR_st9_5000_3c_2/Position/position_3.txt	t
S8_B	14	7	14	0	325.3133	nan	0	s	0	3	3	>,<,>	r,l,r	NavClipsFinalCutRand/GR_st9_5000_3c_2/Position/position_4.txt	t
S8_B	15	7	15	0	350.3401	d	365.8969	d	1	1	3	<,<,<	l,r,l	NavClipsFinalCutRand/GR_st9_5000_3c_0/Position/position_2.txt	n
S8_B	16	7	16	0	375.3505	nan	0	s	0	1	1	>,<,>	r,l,r	NavClipsFinalCutRand/GR_st9_5000_3c_0/Position/position_3.txt	n
S8_B	17	7	17	0	400.3773	nan	0	d	0	3	1	<,>,>	l,r,r	NavClipsFinalCutRand/GR_st9_5000_3c_2/Position/position_5.txt	t
S8_B	18	7	18	0	425.4038	s	439.6261	d	0	1	3	<,>,>	l,r,r	NavClipsFinalCutRand/GR_st9_5000_3c_0/Position/position_4.txt	n
S8_B	19	7	19	0	450.4304	d	469.521	s	0	1	1	>,>,>	r,r,r	NavClipsFinalCutRand/GR_st9_5000_3c_0/Position/position_5.txt	n
S8_B	20	7	20	0	475.4402	d	489.1129	s	0	1	1	>,<,>	r,l,r	NavClipsFinalCutRand/GR_st9_5000_3c_0/Position/position_6.txt	n
S8_B	21	7	21	0	500.4673	s	510.6716	d	0	3	1	<,<,<	l,l,l	NavClipsFinalCutRand/GR_st9_5000_3c_2/Position/position_6.txt	t
S8_B	22	7	22	0	525.4943	s	528.7123	s	1	3	3	>,<,<	r,l,l	NavClipsFinalCutRand/GR_st9_5000_3c_2/Position/position_7.txt	t
S8_B	23	7	23	0	550.5213	s	562.1089	s	1	3	3	>,<,<	r,l,l	NavClipsFinalCutRand/GR_st9_5000_3c_2/Position/position_8.txt	t
S8_B	24	7	24	0	575.5308	d	585.0012	s	0	3	3	<,>,>	r,r,r	NavClipsFinalCutRand/GR_st9_5000_3c_2/Position/position_9.txt	t
S8_B	25	7	25	0	600.5573	d	618.815	d	1	2	3	<,<,>	l,l,r	NavClipsFinalCutRand/GR_st9_5000_3c_1/Position/position_7.txt	m
S8_B	26	7	1	1	0.03323603	nan	0	null	0	3	99	<,<,>	l,l,r	NavClipsFinalCutRand/GR_st9_5000_3c_2/Position/position_10.txt	t
S8_B	27	7	2	1	25.05987	s	40.08241	d	0	2	3	<,<,>	l,l,r	NavClipsFinalCutRand/GR_st9_5000_3c_1/Position/position_8.txt	m
S8_B	28	7	3	1	50.10323	d	65.44279	d	1	3	2	>,<,>	r,l,r	NavClipsFinalCutRand/GR_st9_5000_3c_2/Position/position_11.txt	t
S8_B	29	7	4	1	75.09653	d	92.38699	d	1	1	3	<,>,<	l,r,l	NavClipsFinalCutRand/GR_st9_5000_3c_0/Position/position_7.txt	n
S8_B	30	7	5	1	100.123	d	119.7477	s	0	1	1	<,<,>	l,l,r	NavClipsFinalCutRand/GR_st9_5000_3c_0/Position/position_8.txt	n
S8_B	31	7	6	1	125.1497	d	136.3378	d	1	3	1	<,>,<	l,r,l	NavClipsFinalCutRand/GR_st9_5000_3c_2/Position/position_12.txt	t
S8_B	32	7	7	1	150.1763	d	156.0621	d	1	1	3	<,>,<	l,r,l	NavClipsFinalCutRand/GR_st9_5000_3c_0/Position/position_9.txt	n
S8_B	33	7	8	1	175.1863	nan	0	s	0	1	1	<,>,>	l,r,r	NavClipsFinalCutRand/GR_st9_5000_3c_0/Position/position_10.txt	n
S8_B	34	7	9	1	200.213	s	217.6034	d	0	3	1	>,>,<	r,r,l	NavClipsFinalCutRand/GR_st9_5000_3c_2/Position/position_13.txt	t
S8_B	35	7	10	1	225.2397	s	236.6612	s	1	3	3	<,<,<	l,l,l	NavClipsFinalCutRand/GR_st9_5000_3c_2/Position/position_14.txt	t
S8_B	36	7	11	1	250.2665	d	268.257	s	0	3	3	>,<,>	r,l,r	NavClipsFinalCutRand/GR_st9_5000_3c_2/Position/position_15.txt	t
S8_B	37	7	12	1	275.3101	d	288.3485	s	0	3	3	<,>,<	l,r,l	NavClipsFinalCutRand/GR_st9_5000_3c_2/Position/position_16.txt	t
S8_B	38	7	13	1	300.3035	d	318.0273	d	1	1	3	>,>,>	r,r	NavClipsFinalCutRand/GR_st9_5000_3c_0/Position/position_11.txt	n
S8_B	39	7	14	1	325.3305	s	333.2003	d	0	2	1	<,<,<	l,l,l	NavClipsFinalCutRand/GR_st9_5000_3c_1/Position/position_9.txt	m
S8_B	40	7	15	1	350.3573	d	364.7794	s	0	2	2	>,>,>	r,r,r	NavClipsFinalCutRand/GR_st9_5000_3c_1/Position/position_10.txt	m
S8_B	41	7	16	1	375.4006	d	382.7367	s	0	2	2	>,>,>	r,r,r	NavClipsFinalCutRand/GR_st9_5000_3c_1/Position/position_11.txt	m
S8_B	42	7	17	1	400.4272	d	408.6976	d	1	1	2	>,<,>	r,l,r	NavClipsFinalCutRand/GR_st9_5000_3c_0/Position/position_12.txt	n
S8_B	43	7	18	1	425.4539	s	441.7608	s	1	1	1	>,<,>	r,l,r	NavClipsFinalCutRand/GR_st9_5000_3c_0/Position/position_13.txt	n
S8_B	44	7	19	1	450.4812	s	467.4045	s	1	1	1	<,<,<		NavClipsFinalCutRand/GR_st9_5000_3c_0/Position/position_14.txt	n
S8_B	45	7	20	1	475.5077	d	479.0254	d	1	3	1	<,>,<	l,r,l	NavClipsFinalCutRand/GR_st9_5000_3c_2/Position/position_17.txt	t
S8_B	46	7	21	1	500.5177	d	505.6863	s	0	3	3	<,<,<	,,l	NavClipsFinalCutRand/GR_st9_5000_3c_2/Position/position_18.txt	t
S8_B	47	7	22	1	525.5443	s	531.814	s	1	3	3	>,>,>	r,r,r	NavClipsFinalCutRand/GR_st9_5000_3c_2/Position/position_19.txt	t
S8_B	48	7	23	1	550.5716	d	566.8275	d	1	2	3	>,<,>	r,l,r	NavClipsFinalCutRand/GR_st9_5000_3c_1/Position/position_12.txt	m
S8_B	49	7	24	1	575.5978	d	585.0182	d	1	3	2	<,>,<	l,r,l	NavClipsFinalCutRand/GR_st9_5000_3c_2/Position/position_20.txt	t
S8_B	50	7	25	1	600.6082	d	612.9804	d	1	2	3	<,<,>	l,l,r	NavClipsFinalCutRand/GR_st9_5000_3c_1/Position/position_13.txt	m
S8_B	51	7	1	2	0.03336197	nan	0	null	0	1	99	>,>,<	r,r,l	NavClipsFinalCutRand/GR_st9_5000_3c_0/Position/position_15.txt	n
S8_B	52	7	2	2	25.06001	s	34.18018	d	0	2	1	<,<,>	l,l,r	NavClipsFinalCutRand/GR_st9_5000_3c_1/Position/position_14.txt	m
S8_B	53	7	3	2	50.06989	s	58.30642	d	0	1	2	<,>,<	l,r,l	NavClipsFinalCutRand/GR_st9_5000_3c_0/Position/position_16.txt	n
S8_B	54	7	4	2	75.0966	s	80.76532	d	0	2	1	<,<,>	l,l,r	NavClipsFinalCutRand/GR_st9_5000_3c_1/Position/position_15.txt	m
S8_B	55	7	5	2	100.1232	d	105.0918	d	1	1	2	<,<,>	l,l,r	NavClipsFinalCutRand/GR_st9_5000_3c_0/Position/position_17.txt	n
S8_B	56	7	6	2	125.1498	s	136.104	d	0	3	1	>,>,>	r,r,r	NavClipsFinalCutRand/GR_st9_5000_3c_2/Position/position_21.txt	t
S8_B	57	7	7	2	150.1596	nan	0	s	0	3	3	>,>,<	l,l,l	NavClipsFinalCutRand/GR_st9_5000_3c_2/Position/position_22.txt	t
S8_B	58	7	8	2	175.1864	s	194.7106	d	0	1	3	>,<,>	r,l,r	NavClipsFinalCutRand/GR_st9_5000_3c_0/Position/position_18.txt	n
S8_B	59	7	9	2	200.2131	s	220.0045	s	1	1	1	<,>,<	l,r,l	NavClipsFinalCutRand/GR_st9_5000_3c_0/Position/position_19.txt	n
S8_B	60	7	10	2	225.24	s	237.9949	s	1	1	1	>,<,<	r,l,l	NavClipsFinalCutRand/GR_st9_5000_3c_0/Position/position_20.txt	n
S8_B	61	7	11	2	250.2505	d	269.3744	d	1	2	1	>,<,<	r,l,l	NavClipsFinalCutRand/GR_st9_5000_3c_1/Position/position_16.txt	m
S8_B	62	7	12	2	275.2769	s	284.8301	s	1	2	2	>,>,<	l,l,r	NavClipsFinalCutRand/GR_st9_5000_3c_1/Position/position_17.txt	m
S8_B	63	7	13	2	300.3031	d	315.759	s	0	2	2	<,>,>	l,r,r	NavClipsFinalCutRand/GR_st9_5000_3c_1/Position/position_18.txt	m
S8_B	64	7	14	2	325.3293	d	337.8844	d	1	3	2	<,<,<	r,l,l	NavClipsFinalCutRand/GR_st9_5000_3c_2/Position/position_23.txt	t
S8_B	65	7	15	2	350.3395	d	362.3946	d	1	2	3	<,>,>	l,r,l	NavClipsFinalCutRand/GR_st9_5000_3c_1/Position/position_19.txt	m
S8_B	66	7	16	2	375.3659	s	381.3352	d	0	3	2	<,<,>	l,r,l	NavClipsFinalCutRand/GR_st9_5000_3c_2/Position/position_24.txt	t
S8_B	67	7	17	2	400.3932	s	416.7825	s	1	3	3	>,>,>	l,l,l	NavClipsFinalCutRand/GR_st9_5000_3c_2/Position/position_25.txt	t
S8_B	68	7	18	2	425.4196	s	437.074	d	0	1	3	<,>,>	,l,l	NavClipsFinalCutRand/GR_st9_5000_3c_0/Position/position_21.txt	n
S8_B	69	7	19	2	450.429	s	453.097	d	0	2	1	<,<,>	r,r,l	NavClipsFinalCutRand/GR_st9_5000_3c_1/Position/position_20.txt	m
S8_B	70	7	20	2	475.4561	s	492.2797	s	1	2	2	>,<,<	l,r,r	NavClipsFinalCutRand/GR_st9_5000_3c_1/Position/position_21.txt	m
S8_B	71	7	21	2	500.4828	s	511.037	d	0	1	2	>,>,<	,l,r	NavClipsFinalCutRand/GR_st9_5000_3c_0/Position/position_22.txt	n
S8_B	72	7	22	2	525.5097	s	527.1777	s	1	1	1	>,>,>	r,l,l	NavClipsFinalCutRand/GR_st9_5000_3c_0/Position/position_23.txt	n
S8_B	73	7	23	2	550.5201	d	563.6584	d	1	3	1	<,>,<	l,l,r	NavClipsFinalCutRand/GR_st9_5000_3c_2/Position/position_26.txt	t
S8_B	74	7	24	2	575.546	s	590.8017	d	0	1	3	>,>,>	l,l,l	NavClipsFinalCutRand/GR_st9_5000_3c_0/Position/position_24.txt	n
S8_B	75	7	25	2	600.572	d	607.3246	s	0	1	1	<,>,<	,r,r	NavClipsFinalCutRand/GR_st9_5000_3c_0/Position/position_25.txt	n
S8_B	76	7	1	3	0.03344798	nan	0	null	0	1	99	<,>,>	r,l,l	NavClipsFinalCutRand/GR_st9_5000_3c_0/Position/position_26.txt	n
S8_B	77	7	2	3	25.05994	s	36.53122	s	1	1	1	<,>,>	r,l,l	NavClipsFinalCutRand/GR_st9_5000_3c_0/Position/position_27.txt	n
S8_B	78	7	3	3	50.08677	d	59.17346	d	1	2	1	<,<,<	r,r,r	NavClipsFinalCutRand/GR_st9_5000_3c_1/Position/position_22.txt	m
S8_B	79	7	4	3	75.1132	s	94.20406	s	1	2	2	>,<,<	l,r,r	NavClipsFinalCutRand/GR_st9_5000_3c_1/Position/position_23.txt	m
S8_B	80	7	5	3	100.1232	s	117.6466	s	1	2	2	<,>,<	r,l,r	NavClipsFinalCutRand/GR_st9_5000_3c_1/Position/position_24.txt	m
S8_B	81	7	6	3	125.1496	d	136.7878	d	1	3	2	<,>,>	r,l,l	NavClipsFinalCutRand/GR_st9_5000_3c_2/Position/position_27.txt	t
S8_B	82	7	7	3	150.1762	s	162.0642	s	1	3	3	<,<,<	r,r,r	NavClipsFinalCutRand/GR_st9_5000_3c_2/Position/position_28.txt	t
S8_B	83	7	8	3	175.2026	s	185.8904	s	1	3	3	<,<,>	r,r,l	NavClipsFinalCutRand/GR_st9_5000_3c_2/Position/position_29.txt	t
S8_B	84	7	9	3	200.2127	s	207.3155	d	0	2	3	<,<,>	r,r,l	NavClipsFinalCutRand/GR_st9_5000_3c_1/Position/position_25.txt	m
S8_B	85	7	10	3	225.2393	s	230.6752	d	0	1	2	<,<,>	r,r,l	NavClipsFinalCutRand/GR_st9_5000_3c_0/Position/position_28.txt	n
S8_B	86	7	11	3	250.2658	s	255.0345	s	1	1	1	<,<,<	r,r,l	NavClipsFinalCutRand/GR_st9_5000_3c_0/Position/position_29.txt	n
S8_B	87	7	12	3	275.2927	s	290.4821	d	0	3	1	<,<,<	r,r,r	NavClipsFinalCutRand/GR_st9_5000_3c_2/Position/position_30.txt	t
S8_B	88	7	13	3	300.3029	s	306.7722	s	1	3	3	<,>,>	r,l,l	NavClipsFinalCutRand/GR_st9_5000_3c_2/Position/position_31.txt	t
S8_B	89	7	14	3	325.3295	s	338.9182	d	0	2	3	>,>,<	l,l,r	NavClipsFinalCutRand/GR_st9_5000_3c_1/Position/position_26.txt	m
S8_B	90	7	15	3	350.3563	s	367.5795	d	0	1	2	<,>,>	r,l,l	NavClipsFinalCutRand/GR_st9_5000_3c_0/Position/position_30.txt	n
S8_B	91	7	16	3	375.3828	s	392.5063	d	0	2	1	>,<,<	l,r,r	NavClipsFinalCutRand/GR_st9_5000_3c_1/Position/position_27.txt	m
S8_B	92	7	17	3	400.3929	nan	0	d	0	3	2	>,>,>	l,l,l	NavClipsFinalCutRand/GR_st9_5000_3c_2/Position/position_32.txt	t
S8_B	93	7	18	3	425.4199	s	428.788	d	0	1	3	>,>,>	l,l,l	NavClipsFinalCutRand/GR_st9_5000_3c_0/Position/position_31.txt	n
S8_B	94	7	19	3	450.4467	d	454.2486	d	1	3	1	<,<,<	l,r,r	NavClipsFinalCutRand/GR_st9_5000_3c_2/Position/position_33.txt	t
S8_B	95	7	20	3	475.4733	s	478.1245	s	1	3	3	<,>,>	r,l,l	NavClipsFinalCutRand/GR_st9_5000_3c_2/Position/position_34.txt	t
S8_B	96	7	21	3	500.4834	s	504.5906	d	0	1	3	<,<,<	r,r,r	NavClipsFinalCutRand/GR_st9_5000_3c_0/Position/position_32.txt	n
S8_B	97	7	22	3	525.5105	s	538.0988	s	1	1	1	>,>,>	l,l,l	NavClipsFinalCutRand/GR_st9_5000_3c_0/Position/position_33.txt	n
S8_B	98	7	23	3	550.5369	d	567.4273	s	0	1	1	<,>,<	r,l,r	NavClipsFinalCutRand/GR_st9_5000_3c_0/Position/position_34.txt	n
S8_B	99	7	24	3	575.5802	s	585.8168	s	1	1	1	<,>,<	r,l,r	NavClipsFinalCutRand/GR_st9_5000_3c_0/Position/position_35.txt	n
S8_B	100	7	25	3	600.5728	s	607.5757	d	0	3	1	<,>,>	l,l,l	NavClipsFinalCutRand/GR_st9_5000_3c_2/Position/position_35.txt	t
S9_A	1	8	1	0	0.01635897	nan	NaN	null	NaN	2	99				m
S9_A	2	8	2	0	25.04287	nan	NaN	s	NaN	2	2				m
S9_A	3	8	3	0	50.06974	nan	NaN	d	NaN	1	2				t
S9_A	4	8	4	0	75.0796	nan	NaN	s	NaN	1	1				t
S9_A	5	8	5	0	100.106	nan	NaN	d	NaN	2	1				m
S9_A	6	8	6	0	125.1326	nan	NaN	s	NaN	2	2				m
S9_A	7	8	7	0	150.1597	nan	NaN	s	NaN	2	2				m
S9_A	8	8	8	0	175.1693	nan	NaN	d	NaN	3	2				n
S9_A	9	8	9	0	200.1961	nan	NaN	d	NaN	2	3				m
S9_A	10	8	10	0	225.2229	nan	NaN	s	NaN	2	2				m
S9_A	11	8	11	0	250.2496	nan	NaN	d	NaN	3	2				n
S9_A	12	8	12	0	275.2602	nan	NaN	s	NaN	3	3				n
S9_A	13	8	13	0	300.2865	nan	NaN	s	NaN	3	3				n
S9_A	14	8	14	0	325.3128	nan	NaN	s	NaN	3	3				n
S9_A	15	8	15	0	350.3401	nan	NaN	d	NaN	1	3				t
S9_A	16	8	16	0	375.3501	nan	NaN	s	NaN	1	1				t
S9_A	17	8	17	0	400.3602	nan	NaN	d	NaN	3	1				n
S9_A	18	8	18	0	425.3702	nan	NaN	d	NaN	1	3				t
S9_A	19	8	19	0	450.3968	nan	NaN	s	NaN	1	1				t
S9_A	20	8	20	0	475.4067	nan	NaN	s	NaN	1	1				t
S9_A	21	8	21	0	500.4333	nan	NaN	d	NaN	3	1				n
S9_A	22	8	22	0	525.4597	nan	NaN	s	NaN	3	3				n
S9_A	23	8	23	0	550.4883	nan	NaN	s	NaN	3	3				n
S9_A	24	8	24	0	575.4963	nan	NaN	s	NaN	3	3				n
S9_A	25	8	25	0	600.5233	nan	NaN	d	NaN	2	3				m
S9_A	26	8	1	1	0.01635897	nan	0	null	0	3	99	>,<,<	r,l,l	NavClipsFinalCutRand/GR_st9_5000_3c_2/Position/position_1.txt	n
S9_A	27	8	2	1	25.04287	s	34.36354	d	0	2	3	>,<,<	r,l,l	NavClipsFinalCutRand/GR_st9_5000_3c_1/Position/position_0.txt	m
S9_A	28	8	3	1	50.06974	d	63.95844	d	1	3	2	>,<,<	r,l,l	NavClipsFinalCutRand/GR_st9_5000_3c_2/Position/position_2.txt	n
S9_A	29	8	4	1	75.0796	d	84.55012	d	1	1	3	<,>,>	l,r,r	NavClipsFinalCutRand/GR_st9_5000_3c_0/Position/position_0.txt	t
S9_A	30	8	5	1	100.106	s	112.1943	s	1	1	1	<,<,>	l,l,r	NavClipsFinalCutRand/GR_st9_5000_3c_0/Position/position_1.txt	t
S9_A	31	8	6	1	125.1326	d	136.0871	d	1	3	1	>,>,<	r,r,l	NavClipsFinalCutRand/GR_st9_5000_3c_2/Position/position_3.txt	n
S9_A	32	8	7	1	150.1597	d	159.9134	d	1	1	3	>,>,<	r,r,l	NavClipsFinalCutRand/GR_st9_5000_3c_0/Position/position_2.txt	t
S9_A	33	8	8	1	175.1693	s	187.7746	s	1	1	1	<,>,<	l,r,l	NavClipsFinalCutRand/GR_st9_5000_3c_0/Position/position_3.txt	t
S9_A	34	8	9	1	200.1961	d	207.1991	d	1	3	1	>,>,<	r,r,l	NavClipsFinalCutRand/GR_st9_5000_3c_2/Position/position_4.txt	n
S9_A	35	8	10	1	225.2229	s	227.824	s	1	3	3	<,>,<	l,r,l	NavClipsFinalCutRand/GR_st9_5000_3c_2/Position/position_5.txt	n
S9_A	36	8	11	1	250.2496	s	268.607	s	1	3	3	>,>,>	r,r,r	NavClipsFinalCutRand/GR_st9_5000_3c_2/Position/position_6.txt	n
S9_A	37	8	12	1	275.2602	s	287.164	s	1	3	3	>,>,>	r,r,r	NavClipsFinalCutRand/GR_st9_5000_3c_2/Position/position_7.txt	n
S9_A	38	8	13	1	300.2865	d	306.8221	d	1	1	3	>,>,>	r,r,r	NavClipsFinalCutRand/GR_st9_5000_3c_0/Position/position_4.txt	t
S9_A	39	8	14	1	325.3128	d	334.2664	d	1	2	1	>,>,<	r,r,l	NavClipsFinalCutRand/GR_st9_5000_3c_1/Position/position_1.txt	m
S9_A	40	8	15	1	350.3401	s	359.3934	s	1	2	2	<,>,<	l,r,l	NavClipsFinalCutRand/GR_st9_5000_3c_1/Position/position_2.txt	m
S9_A	41	8	16	1	375.3501	s	379.785	s	1	2	2	<,>,<	l,r,l	NavClipsFinalCutRand/GR_st9_5000_3c_1/Position/position_3.txt	m
S9_A	42	8	17	1	400.3602	d	408.3131	d	1	1	2	<,<,<	l,l,l	NavClipsFinalCutRand/GR_st9_5000_3c_0/Position/position_5.txt	t
S9_A	43	8	18	1	425.3702	s	429.1382	s	1	1	1	<,>,<	l,r,l	NavClipsFinalCutRand/GR_st9_5000_3c_0/Position/position_6.txt	t
S9_A	44	8	19	1	450.3968	s	467.8535	s	1	1	1	>,<,>	r,l,r	NavClipsFinalCutRand/GR_st9_5000_3c_0/Position/position_7.txt	t
S9_A	45	8	20	1	475.4067	d	480.8143	d	1	3	1	<,<,>	l,l,r	NavClipsFinalCutRand/GR_st9_5000_3c_2/Position/position_8.txt	n
S9_A	46	8	21	1	500.4333	s	520.0905	s	1	3	3	>,>,>	r,r,r	NavClipsFinalCutRand/GR_st9_5000_3c_2/Position/position_9.txt	n
S9_A	47	8	22	1	525.4597	s	527.6274	s	1	3	3	<,>,>	l,r,r	NavClipsFinalCutRand/GR_st9_5000_3c_2/Position/position_10.txt	n
S9_A	48	8	23	1	550.4883	d	553.1376	d	1	2	3	<,>,<	l,r,l	NavClipsFinalCutRand/GR_st9_5000_3c_1/Position/position_4.txt	m
S9_A	49	8	24	1	575.4963	d	593.937	d	1	3	2	<,<,>	l,l,r	NavClipsFinalCutRand/GR_st9_5000_3c_2/Position/position_11.txt	n
S9_A	50	8	25	1	600.5233	s	608.9595	d	0	2	3	>,<,<	r,l,l	NavClipsFinalCutRand/GR_st9_5000_3c_1/Position/position_5.txt	m
S9_A	51	8	1	2	0.033315	nan	0	null	0	1	99	<,>,<	l,r,l	NavClipsFinalCutRand/GR_st9_5000_3c_0/Position/position_8.txt	t
S9_A	52	8	2	2	25.06004	d	31.67943	d	1	2	1	>,>,>	r,r,r	NavClipsFinalCutRand/GR_st9_5000_3c_1/Position/position_6.txt	m
S9_A	53	8	3	2	50.06996	d	69.46131	d	1	1	2	<,>,<	l,r,l	NavClipsFinalCutRand/GR_st9_5000_3c_0/Position/position_9.txt	t
S9_A	54	8	4	2	75.09659	d	89.91936	d	1	2	1	>,<,<	r,l,l	NavClipsFinalCutRand/GR_st9_5000_3c_1/Position/position_7.txt	m
S9_A	55	8	5	2	100.1232	s	112.445	d	0	1	2	<,<,>	l,l,r	NavClipsFinalCutRand/GR_st9_5000_3c_0/Position/position_10.txt	t
S9_A	56	8	6	2	125.1498	d	141.4733	d	1	3	1	>,<,<	r,l,l	NavClipsFinalCutRand/GR_st9_5000_3c_2/Position/position_12.txt	n
S9_A	57	8	7	2	150.1597	s	163.4986	s	1	3	3	<,<,>	l,l,r	NavClipsFinalCutRand/GR_st9_5000_3c_2/Position/position_13.txt	n
S9_A	58	8	8	2	175.1866	d	182.4897	d	1	1	3	<,>,>	l,r,r	NavClipsFinalCutRand/GR_st9_5000_3c_0/Position/position_11.txt	t
S9_A	59	8	9	2	200.2131	s	216.9032	s	1	1	1	<,<,>	l,l,r	NavClipsFinalCutRand/GR_st9_5000_3c_0/Position/position_12.txt	t
S9_A	60	8	10	2	225.2396	s	242.83	s	1	1	1	>,>,<	r,r,l	NavClipsFinalCutRand/GR_st9_5000_3c_0/Position/position_13.txt	t
S9_A	61	8	11	2	250.2493	nan	0	d	0	2	1	>,>,>	r,r,r	NavClipsFinalCutRand/GR_st9_5000_3c_1/Position/position_8.txt	m
S9_A	62	8	12	2	275.276	d	278.8444	s	0	2	2	>,>,>	r,r,r	NavClipsFinalCutRand/GR_st9_5000_3c_1/Position/position_9.txt	m
S9_A	63	8	13	2	300.3026	d	304.6378	s	0	2	2	>,>,>	r,r,r	NavClipsFinalCutRand/GR_st9_5000_3c_1/Position/position_10.txt	m
S9_A	64	8	14	2	325.3295	d	327.3801	d	1	3	2	>,>,<	r,r,l	NavClipsFinalCutRand/GR_st9_5000_3c_2/Position/position_14.txt	n
S9_A	65	8	15	2	350.3389	s	365.9458	d	0	2	3	>,>,>	r,r,r	NavClipsFinalCutRand/GR_st9_5000_3c_1/Position/position_11.txt	m
S9_A	66	8	16	2	375.366	d	385.5539	d	1	3	2	>,>,<	r,r,l	NavClipsFinalCutRand/GR_st9_5000_3c_2/Position/position_15.txt	n
S9_A	67	8	17	2	400.3927	d	409.3797	s	0	3	3	<,>,<	l,r,l	NavClipsFinalCutRand/GR_st9_5000_3c_2/Position/position_16.txt	n
S9_A	68	8	18	2	425.4196	d	431.7088	d	1	1	3	<,<,<	l,l,l	NavClipsFinalCutRand/GR_st9_5000_3c_0/Position/position_14.txt	t
S9_A	69	8	19	2	450.429	d	467.2184	d	1	2	1	>,>,>	r,r,r	NavClipsFinalCutRand/GR_st9_5000_3c_1/Position/position_12.txt	m
S9_A	70	8	20	2	475.4554	s	482.1246	s	1	2	2	<,>,<	l,r,l	NavClipsFinalCutRand/GR_st9_5000_3c_1/Position/position_13.txt	m
S9_A	71	8	21	2	500.4656	d	504.7506	d	1	1	2	<,<,>	l,l,r	NavClipsFinalCutRand/GR_st9_5000_3c_0/Position/position_15.txt	t
S9_A	72	8	22	2	525.4766	s	539.099	s	1	1	1	>,>,<	r,r,l	NavClipsFinalCutRand/GR_st9_5000_3c_0/Position/position_16.txt	t
S9_A	73	8	23	2	550.4875	d	557.9235	d	1	3	1	>,<,>	r,l,r	NavClipsFinalCutRand/GR_st9_5000_3c_2/Position/position_17.txt	n
S9_A	74	8	24	2	575.5137	nan	0	d	0	1	3	>,>,<	r,r,l	NavClipsFinalCutRand/GR_st9_5000_3c_0/Position/position_17.txt	t
S9_A	75	8	25	2	600.5407	s	603.8085	s	1	1	1	<,>,>	l,r,r	NavClipsFinalCutRand/GR_st9_5000_3c_0/Position/position_18.txt	t
S9_A	76	8	1	3	0.03326499	nan	0	null	0	1	99	<,>,<	l,r,l	NavClipsFinalCutRand/GR_st9_5000_3c_0/Position/position_19.txt	t
S9_A	77	8	2	3	25.06001	s	35.04721	s	1	1	1	>,>,<	r,r,l	NavClipsFinalCutRand/GR_st9_5000_3c_0/Position/position_20.txt	t
S9_A	78	8	3	3	50.08669	d	54.43804	d	1	2	1	<,<,>	l,l,r	NavClipsFinalCutRand/GR_st9_5000_3c_1/Position/position_14.txt	m
S9_A	79	8	4	3	75.09637	s	80.39835	s	1	2	2	<,>,<	l,r,l	NavClipsFinalCutRand/GR_st9_5000_3c_1/Position/position_15.txt	m
S9_A	80	8	5	3	100.1231	s	105.0366	s	1	2	2	>,<,>	r,l,r	NavClipsFinalCutRand/GR_st9_5000_3c_1/Position/position_16.txt	m
S9_A	81	8	6	3	125.1498	d	132.636	d	1	3	2	<,<,>	l,l,r	NavClipsFinalCutRand/GR_st9_5000_3c_2/Position/position_18.txt	n
S9_A	82	8	7	3	150.1762	s	162.1644	s	1	3	3	>,>,<	r,r,l	NavClipsFinalCutRand/GR_st9_5000_3c_2/Position/position_19.txt	n
S9_A	83	8	8	3	175.1863	s	190.1923	s	1	3	3	<,>,<	l,r,l	NavClipsFinalCutRand/GR_st9_5000_3c_2/Position/position_20.txt	n
S9_A	84	8	9	3	200.213	d	217.3031	d	1	2	3	>,>,>	r,r,r	NavClipsFinalCutRand/GR_st9_5000_3c_1/Position/position_17.txt	m
S9_A	85	8	10	3	225.2396	d	231.6419	d	1	1	2	>,>,>	r,r,r	NavClipsFinalCutRand/GR_st9_5000_3c_0/Position/position_21.txt	t
S9_A	86	8	11	3	250.2664	s	251.9335	s	1	1	1	<,>,<	l,r,l	NavClipsFinalCutRand/GR_st9_5000_3c_0/Position/position_22.txt	t
S9_A	87	8	12	3	275.2762	d	284.7467	d	1	3	1	<,>,<	l,r,l	NavClipsFinalCutRand/GR_st9_5000_3c_2/Position/position_21.txt	n
S9_A	88	8	13	3	300.3028	s	310.8738	s	1	3	3	>,<,<	r,l,l	NavClipsFinalCutRand/GR_st9_5000_3c_2/Position/position_22.txt	n
S9_A	89	8	14	3	325.3291	d	330.4645	d	1	2	3	>,<,<	r,l,l	NavClipsFinalCutRand/GR_st9_5000_3c_1/Position/position_18.txt	m
S9_A	90	8	15	3	350.3556	d	356.3784	d	1	1	2	<,>,>	l,r,r	NavClipsFinalCutRand/GR_st9_5000_3c_0/Position/position_23.txt	t
S9_A	91	8	16	3	375.3654	d	377.2996	d	1	2	1	<,>,>	l,r,r	NavClipsFinalCutRand/GR_st9_5000_3c_1/Position/position_19.txt	m
S9_A	92	8	17	3	400.3924	d	415.2484	d	1	3	2	<,<,>	l,l,r	NavClipsFinalCutRand/GR_st9_5000_3c_2/Position/position_23.txt	n
S9_A	93	8	18	3	425.4191	d	439.0084	d	1	1	3	<,>,<	l,r,l	NavClipsFinalCutRand/GR_st9_5000_3c_0/Position/position_24.txt	t
S9_A	94	8	19	3	450.4463	d	461.1005	d	1	3	1	<,>,<	l,r,l	NavClipsFinalCutRand/GR_st9_5000_3c_2/Position/position_24.txt	n
S9_A	95	8	20	3	475.4562	s	488.1616	s	1	3	3	<,<,>	l,l,r	NavClipsFinalCutRand/GR_st9_5000_3c_2/Position/position_25.txt	n
S9_A	96	8	21	3	500.4828	d	506.7187	d	1	1	3	>,>,>	r,r,r	NavClipsFinalCutRand/GR_st9_5000_3c_0/Position/position_25.txt	t
S9_A	97	8	22	3	525.5099	s	527.0441	s	1	1	1	<,>,>	l,r,r	NavClipsFinalCutRand/GR_st9_5000_3c_0/Position/position_26.txt	t
S9_A	98	8	23	3	550.5367	s	559.5903	s	1	1	1	<,<,>	l,l,r	NavClipsFinalCutRand/GR_st9_5000_3c_0/Position/position_27.txt	t
S9_A	99	8	24	3	575.5464	s	589.5187	s	1	1	1	>,<,>	r,l,r	NavClipsFinalCutRand/GR_st9_5000_3c_0/Position/position_28.txt	t
S9_A	100	8	25	3	600.5565	d	605.8083	d	1	3	1	<,<,<	l,l,l	NavClipsFinalCutRand/GR_st9_5000_3c_2/Position/position_26.txt	n
S10_B	1	9	1	0	0.03310901	nan	0	null	0	1	99	<,>,>	l,r,r	NavClipsFinalCutRand/GR_st9_5000_3c_0/Position/position_1.txt	n
S10_B	2	9	2	0	25.04307	s	39.46566	s	1	1	1	<,<,<	l,l,l	NavClipsFinalCutRand/GR_st9_5000_3c_0/Position/position_2.txt	n
S10_B	3	9	3	0	50.06965	d	57.62285	d	1	2	1	>,>,<	r,r,l	NavClipsFinalCutRand/GR_st9_5000_3c_1/Position/position_0.txt	m
S10_B	4	9	4	0	75.07974	d	82.98278	s	0	2	2	<,<,<	l,l,l	NavClipsFinalCutRand/GR_st9_5000_3c_1/Position/position_1.txt	m
S10_B	5	9	5	0	100.1062	d	106.8423	s	0	2	2	>,>,>	r,r,r	NavClipsFinalCutRand/GR_st9_5000_3c_1/Position/position_2.txt	m
S10_B	6	9	6	0	125.1162	s	127.6175	d	0	3	2	<,<,<	l,l,l	NavClipsFinalCutRand/GR_st9_5000_3c_2/Position/position_0.txt	t
S10_B	7	9	7	0	150.1428	s	164.5653	s	1	3	3	>,>,<	r,r,l	NavClipsFinalCutRand/GR_st9_5000_3c_2/Position/position_1.txt	t
S10_B	8	9	8	0	175.1529	s	188.2911	s	1	3	3	>,<,<	r,l,l	NavClipsFinalCutRand/GR_st9_5000_3c_2/Position/position_2.txt	t
S10_B	9	9	9	0	200.179	d	218.2361	d	1	2	3	>,>,>	r,r,r	NavClipsFinalCutRand/GR_st9_5000_3c_1/Position/position_3.txt	m
S10_B	10	9	10	0	225.2055	d	237.7275	d	1	1	2	>,>,>	r,r,r	NavClipsFinalCutRand/GR_st9_5000_3c_0/Position/position_3.txt	n
S10_B	11	9	11	0	250.2322	d	261.7867	s	0	1	1	<,<,>	l,l,r	NavClipsFinalCutRand/GR_st9_5000_3c_0/Position/position_4.txt	n
S10_B	12	9	12	0	275.2418	d	278.9101	d	1	3	1	<,>,<	l,r,l	NavClipsFinalCutRand/GR_st9_5000_3c_2/Position/position_3.txt	t
S10_B	13	9	13	0	300.2681	d	310.0721	s	0	3	3	>,>,<	r,r,l	NavClipsFinalCutRand/GR_st9_5000_3c_2/Position/position_4.txt	t
S10_B	14	9	14	0	325.2946	s	332.3475	d	0	2	3	>,>,>	r,r,r	NavClipsFinalCutRand/GR_st9_5000_3c_1/Position/position_4.txt	m
S10_B	15	9	15	0	350.3215	s	366.1777	d	0	1	2	<,<,<	l,l,l	NavClipsFinalCutRand/GR_st9_5000_3c_0/Position/position_5.txt	n
S10_B	16	9	16	0	375.3314	s	392.6219	d	0	2	1	<,<,>	l,l,r	NavClipsFinalCutRand/GR_st9_5000_3c_1/Position/position_5.txt	m
S10_B	17	9	17	0	400.3587	s	413.0966	d	0	3	2	>,<,<	r,l,l	NavClipsFinalCutRand/GR_st9_5000_3c_2/Position/position_5.txt	t
S10_B	18	9	18	0	425.3848	d	428.6532	d	1	1	3	<,<,>	l,l,r	NavClipsFinalCutRand/GR_st9_5000_3c_0/Position/position_6.txt	n
S10_B	19	9	19	0	450.4118	d	462.207	d	1	3	1	<,>,<	l,r,l	NavClipsFinalCutRand/GR_st9_5000_3c_2/Position/position_6.txt	t
S10_B	20	9	20	0	475.4221	s	482.9919	s	1	3	3	>,<,>	r,l,r	NavClipsFinalCutRand/GR_st9_5000_3c_2/Position/position_7.txt	t
S10_B	21	9	21	0	500.449	d	508.2639	d	1	1	3	>,>,<	r,r,l	NavClipsFinalCutRand/GR_st9_5000_3c_0/Position/position_7.txt	n
S10_B	22	9	22	0	525.4759	s	532.0117	s	1	1	1	<,<,<	l,l,l	NavClipsFinalCutRand/GR_st9_5000_3c_0/Position/position_8.txt	n
S10_B	23	9	23	0	550.5024	d	567.4923	s	0	1	1	>,<,>	r,l,r	NavClipsFinalCutRand/GR_st9_5000_3c_0/Position/position_9.txt	n
S10_B	24	9	24	0	575.512	s	581.6148	s	1	1	1	>,>,<	r,r,l	NavClipsFinalCutRand/GR_st9_5000_3c_0/Position/position_10.txt	n
S10_B	25	9	25	0	600.5388	d	605.5408	d	1	3	1	>,<,>	r,l,r	NavClipsFinalCutRand/GR_st9_5000_3c_2/Position/position_8.txt	t
S10_B	26	9	1	1	0.03330797	nan	0	null	0	1	99	>,<,<	r,l,l	NavClipsFinalCutRand/GR_st9_5000_3c_0/Position/position_11.txt	n
S10_B	27	9	2	1	25.06026	d	33.51304	d	1	2	1	>,<,<	r,l,l	NavClipsFinalCutRand/GR_st9_5000_3c_1/Position/position_6.txt	m
S10_B	28	9	3	1	50.06982	d	63.57505	d	1	1	2	<,>,<	l,r,l	NavClipsFinalCutRand/GR_st9_5000_3c_0/Position/position_12.txt	n
S10_B	29	9	4	1	75.09647	d	86.96806	d	1	2	1	<,>,>	l,r,r	NavClipsFinalCutRand/GR_st9_5000_3c_1/Position/position_7.txt	m
S10_B	30	9	5	1	100.123	d	114.2453	d	1	1	2	<,>,>	l,r,r	NavClipsFinalCutRand/GR_st9_5000_3c_0/Position/position_13.txt	n
S10_B	31	9	6	1	125.1497	d	132.9029	d	1	3	1	<,>,>	l,r,r	NavClipsFinalCutRand/GR_st9_5000_3c_2/Position/position_9.txt	t
S10_B	32	9	7	1	150.1597	s	159.0633	s	1	3	3	>,>,>	r,r,r	NavClipsFinalCutRand/GR_st9_5000_3c_2/Position/position_10.txt	t
S10_B	33	9	8	1	175.1864	d	182.6894	d	1	1	3	<,<,<	l,l,l	NavClipsFinalCutRand/GR_st9_5000_3c_0/Position/position_14.txt	n
S10_B	34	9	9	1	200.2128	s	202.8139	s	1	1	1	>,>,<	r,r,l	NavClipsFinalCutRand/GR_st9_5000_3c_0/Position/position_15.txt	n
S10_B	35	9	10	1	225.2393	s	238.3611	s	1	1	1	<,>,<	r,r,l	NavClipsFinalCutRand/GR_st9_5000_3c_0/Position/position_16.txt	n
S10_B	36	9	11	1	250.2491	s	269.8069	d	0	2	1	>,>,<	r,r,l	NavClipsFinalCutRand/GR_st9_5000_3c_1/Position/position_8.txt	m
S10_B	37	9	12	1	275.2758	d	279.6109	s	0	2	2	<,<,<	l,l,l	NavClipsFinalCutRand/GR_st9_5000_3c_1/Position/position_9.txt	m
S10_B	38	9	13	1	300.3025	s	307.3384	s	1	2	2	>,<,>	r,l,r	NavClipsFinalCutRand/GR_st9_5000_3c_1/Position/position_10.txt	m
S10_B	39	9	14	1	325.3291	d	340.6183	d	1	3	2	>,<,>	r,l,r	NavClipsFinalCutRand/GR_st9_5000_3c_2/Position/position_11.txt	t
S10_B	40	9	15	1	350.3391	s	364.3446	d	0	2	3	>,<,>	r,l,r	NavClipsFinalCutRand/GR_st9_5000_3c_1/Position/position_11.txt	m
S10_B	41	9	16	1	375.3658	s	382.269	d	0	3	2	<,>,>	l,r,l	NavClipsFinalCutRand/GR_st9_5000_3c_2/Position/position_12.txt	t
S10_B	42	9	17	1	400.3924	s	409.3792	s	1	3	3	>,<,<	r,l,l	NavClipsFinalCutRand/GR_st9_5000_3c_2/Position/position_13.txt	t
S10_B	43	9	18	1	425.4191	d	434.5101	d	1	1	3	>,>,<	r,r,l	NavClipsFinalCutRand/GR_st9_5000_3c_0/Position/position_17.txt	n
S10_B	44	9	19	1	450.429	d	458.9992	d	1	2	1	>,<,<	r,l,l	NavClipsFinalCutRand/GR_st9_5000_3c_1/Position/position_12.txt	m
S10_B	45	9	20	1	475.4556	s	493.8797	s	1	2	2	<,<,<	l,l,l	NavClipsFinalCutRand/GR_st9_5000_3c_1/Position/position_13.txt	m
S10_B	46	9	21	1	500.4655	d	506.3178	d	1	1	2	>,<,<	r,l,l	NavClipsFinalCutRand/GR_st9_5000_3c_0/Position/position_18.txt	n
S10_B	47	9	22	1	525.4752	s	536.8299	s	1	1	1	>,<,<	r,l,l	NavClipsFinalCutRand/GR_st9_5000_3c_0/Position/position_19.txt	n
S10_B	48	9	23	1	550.502	d	555.3538	d	1	3	1	>,<,<	r,l,l	NavClipsFinalCutRand/GR_st9_5000_3c_2/Position/position_14.txt	t
S10_B	49	9	24	1	575.5123	d	584.2612	d	1	1	3	<,<,>	l,l,r	NavClipsFinalCutRand/GR_st9_5000_3c_0/Position/position_20.txt	n
S10_B	50	9	25	1	600.5384	s	607.6414	s	1	1	1	<,>,<	l,r,l	NavClipsFinalCutRand/GR_st9_5000_3c_0/Position/position_21.txt	n
S10_B	51	9	1	2	0.03288901	nan	0	null	0	3	99	>,<,>	r,l,r	NavClipsFinalCutRand/GR_st9_5000_3c_2/Position/position_15.txt	t
S10_B	52	9	2	2	25.07619	d	30.82829	d	1	2	3	<,>,<	l,r,l	NavClipsFinalCutRand/GR_st9_5000_3c_1/Position/position_14.txt	m
S10_B	53	9	3	2	50.08619	d	61.07389	d	1	3	2	>,>,<	r,r,l	NavClipsFinalCutRand/GR_st9_5000_3c_2/Position/position_16.txt	t
S10_B	54	9	4	2	75.11294	d	79.86441	d	1	1	3	<,<,>	r,l,r	NavClipsFinalCutRand/GR_st9_5000_3c_0/Position/position_22.txt	n
S10_B	55	9	5	2	100.1226	s	104.7306	s	1	1	1	>,>,>	r,r,r	NavClipsFinalCutRand/GR_st9_5000_3c_0/Position/position_23.txt	n
S10_B	56	9	6	2	125.1493	d	129.5176	d	1	3	1	>,<,>	r,l,r	NavClipsFinalCutRand/GR_st9_5000_3c_2/Position/position_17.txt	t
S10_B	57	9	7	2	150.176	s	162.864	d	0	1	3	>,>,>	r,r,r	NavClipsFinalCutRand/GR_st9_5000_3c_0/Position/position_24.txt	n
S10_B	58	9	8	2	175.2026	s	181.5554	s	1	1	1	<,<,>	l,l,r	NavClipsFinalCutRand/GR_st9_5000_3c_0/Position/position_25.txt	n
S10_B	59	9	9	2	200.2125	d	203.7136	d	1	3	1	>,>,>	r,r,r	NavClipsFinalCutRand/GR_st9_5000_3c_2/Position/position_18.txt	t
S10_B	60	9	10	2	225.2391	s	235.5428	s	1	3	3	<,<,>	l,l,r	NavClipsFinalCutRand/GR_st9_5000_3c_2/Position/position_19.txt	t
